"Time (s)","Linear Acceleration x (m/s^2)","Linear Acceleration y (m/s^2)","Linear Acceleration z (m/s^2)","Absolute acceleration (m/s^2)"
2.027996800E-2,-1.202630997E-2,2.878136635E-1,2.101926804E-1,3.565982332E-1
2.827981100E-2,-3.751432896E-2,1.894912720E-1,-3.488936424E-1,3.987994994E-1
3.628258500E-2,-2.594006062E-2,2.576370239E-1,-5.615057945E-1,6.183352490E-1
4.428274100E-2,-6.230026484E-2,3.945932388E-1,-5.491414070E-1,6.790739518E-1
5.228422500E-2,-9.254342318E-2,4.737672806E-1,-4.455180168E-1,6.568911817E-1
6.028469400E-2,-7.517069578E-2,4.485931396E-1,-3.874273300E-1,5.974833675E-1
6.828360000E-2,-1.016203761E-1,3.682222366E-1,-3.085865974E-1,4.910600824E-1
7.628656900E-2,-1.120275557E-1,2.849111557E-1,-2.772517204E-1,4.130291229E-1
8.428957700E-2,-4.555967450E-2,2.201442719E-1,-2.870802879E-1,3.646289567E-1
9.229192100E-2,-2.109771967E-2,1.933898926E-1,-2.390875816E-1,3.082330872E-1
1.002921160E-1,6.171166897E-3,1.883811951E-1,-1.357374191E-1,2.322718341E-1
1.082911000E-1,-1.625320315E-2,1.744260788E-1,-3.485059738E-2,1.786146347E-1
1.162908270E-1,-1.027455926E-1,1.583108902E-1,-1.729488373E-3,1.887378761E-1
1.242884050E-1,-9.794571996E-2,1.465854645E-1,-5.261516571E-2,1.839810265E-1
1.322889910E-1,-7.958135009E-2,1.501216888E-1,-1.141595840E-1,2.047000815E-1
1.402895380E-1,-7.637846470E-2,1.560096741E-1,-3.966808319E-2,1.781747600E-1
1.482845770E-1,-5.057981610E-2,1.610536575E-1,3.054141998E-2,1.715499249E-1
1.562829360E-1,-9.744346142E-3,1.807460785E-1,4.703569412E-2,1.870199286E-1
1.642825460E-1,5.305349827E-3,1.549472809E-1,2.507162094E-2,1.570521976E-1
1.722807880E-1,2.268537879E-2,1.516962051E-1,4.436063766E-2,1.596691305E-1
1.802811000E-1,2.103197575E-2,1.569108963E-1,6.635904312E-2,1.716592438E-1
1.882794210E-1,6.775873899E-2,1.497612000E-1,6.447410583E-2,1.765688932E-1
1.962753970E-1,4.726815224E-2,1.555814743E-1,9.150981903E-3,1.628607191E-1
2.042742250E-1,5.692520738E-2,1.348161697E-1,-5.101680756E-3,1.464305501E-1
2.122748890E-1,6.108990312E-2,1.289329529E-1,3.329515457E-2,1.465068255E-1
2.202762570E-1,2.170366049E-2,1.609201431E-1,2.990007401E-2,1.651071039E-1
2.282796160E-1,-5.326828361E-2,2.140760422E-1,-7.215499878E-3,2.207218279E-1
2.362816080E-1,-1.101603806E-1,2.192983627E-1,5.873727798E-2,2.523433161E-1
2.442815300E-1,-1.557840705E-1,2.277765274E-1,1.079649925E-1,2.963229027E-1
2.522795770E-1,-1.357584894E-1,2.617063522E-1,1.128983498E-1,3.157002053E-1
2.602771550E-1,-1.241639256E-1,2.510995865E-1,1.257729530E-1,3.070610989E-1
2.682770770E-1,-1.107351184E-1,2.542285919E-1,1.498303413E-1,3.151881574E-1
2.762786390E-1,2.330935001E-2,2.015151978E-1,2.193694115E-1,2.987886200E-1
2.842777410E-1,7.481045723E-1,1.034746170E-1,2.224926949E-1,7.873185167E-1
2.922773110E-1,4.432154894E-1,9.309673309E-2,-7.145929337E-2,4.584903514E-1
3.002770770E-1,-1.918926239E-1,1.651287079E-2,-2.572536469E-3,1.926189813E-1
3.082752410E-1,-3.923544586E-1,-1.284828186E-1,2.007126808E-1,4.590592947E-1
3.162728580E-1,-2.393869460E-1,-2.496213913E-1,2.817482948E-1,4.460930963E-1
3.242701630E-1,2.679747343E-2,-2.703886032E-1,3.534555435E-1,4.458238695E-1
3.322666470E-1,1.267491579E0,2.232494354E-1,3.801202774E-1,1.341963725E0
3.402646940E-1,7.311404943E-1,4.932489395E-1,2.553620338E-1,9.181888189E-1
3.482648110E-1,-2.452546656E-1,3.322992325E-1,4.353284836E-1,6.000695956E-1
3.562662570E-1,-4.305846095E-1,1.301345825E-1,5.877385139E-1,7.401180151E-1
3.642646550E-1,-5.331130624E-1,-7.297039032E-2,5.022153854E-1,7.360397466E-1
3.722630140E-1,-4.486077130E-1,-2.887535095E-1,3.267073631E-1,6.255918562E-1
3.802594990E-1,-4.786147773E-1,-5.879640579E-1,2.294931412E-1,7.921116969E-1
3.882607490E-1,-4.994435906E-1,-8.308677673E-1,7.524728775E-2,9.723411445E-1
3.962634050E-1,-3.720355630E-1,-9.689588547E-1,1.670918465E-1,1.051290353E0
4.042668030E-1,-1.041240692E-1,-1.083927631E0,4.310359955E-1,1.171124657E0
4.122737180E-1,3.497260809E-2,-1.035843849E0,5.628290176E-1,1.179394788E0
4.202750850E-1,2.760046721E-2,-8.738932610E-1,5.383095741E-1,1.026756259E0
4.282757490E-1,-1.029491425E-3,-6.751208305E-1,4.074101448E-1,7.885253463E-1
4.362789910E-1,-2.196326852E-2,-4.662127495E-1,2.674360275E-1,5.379207579E-1
4.442827020E-1,-8.751690388E-3,-2.112522125E-1,1.290102005E-1,2.476847214E-1
4.522869600E-1,-1.292175055E-2,2.337837219E-2,8.335065842E-2,8.752629423E-2
4.602894990E-1,3.703743219E-2,1.402177811E-1,7.905817032E-2,1.651756393E-1
4.682928580E-1,3.635337949E-2,2.490234375E-1,1.359090805E-1,2.860166408E-1
4.762944600E-1,-1.980069280E-2,2.881975174E-1,2.169818878E-1,3.612907639E-1
4.842935220E-1,-4.542842507E-2,3.054838181E-1,2.147378922E-1,3.761601617E-1
4.922927800E-1,-2.627308369E-1,4.155292511E-1,1.583638191E-1,5.164989355E-1
5.002956320E-1,-2.579900026E-1,4.391117096E-1,6.884050369E-2,5.139230973E-1
5.082994210E-1,-2.068682909E-1,4.001092911E-1,3.477144241E-2,4.517643056E-1
5.163032490E-1,-1.316778362E-1,3.156938553E-1,-9.175777435E-3,3.421781082E-1
5.243060610E-1,-8.334568143E-2,2.483282089E-1,2.301025391E-2,2.629503256E-1
5.323075460E-1,-1.121004820E-1,2.555360794E-1,1.073040962E-1,2.989638356E-1
5.403060220E-1,-8.484962583E-2,2.700223923E-1,1.173243523E-1,3.063928115E-1
5.483058270E-1,-8.019295335E-2,1.766548157E-1,1.178679466E-1,2.270037147E-1
5.563052020E-1,-1.045047343E-1,2.364530563E-1,9.216737747E-2,2.744560307E-1
5.643027800E-1,-4.260361195E-2,2.842483521E-1,9.071350098E-3,2.875664841E-1
5.723006710E-1,-1.328381896E-2,2.460508347E-1,-2.892780304E-2,2.481013722E-1
5.803026240E-1,1.135878861E-1,7.189846039E-2,2.324295044E-2,1.364251854E-1
5.883021160E-1,1.434378773E-1,-3.459167480E-2,1.103196144E-1,1.842319894E-1
5.963014130E-1,5.755123496E-2,-9.026432037E-2,2.085280418E-1,2.344008029E-1
6.043026630E-1,6.155729294E-2,-1.766419411E-1,2.079024315E-1,2.796696206E-1
6.123080140E-1,-1.275973320E-1,-1.126565933E-1,1.554141045E-1,2.304910649E-1
6.203144600E-1,-4.719960690E-2,-2.220473289E-1,1.763687134E-1,2.874695501E-1
6.283204750E-1,5.511352420E-2,-3.774809837E-1,2.197546959E-1,4.402516553E-1
6.363239130E-1,1.232313812E-1,-4.400167465E-1,1.872229576E-1,4.938148908E-1
6.443259050E-1,7.800599933E-2,-4.020295143E-1,1.044464111E-1,4.226366277E-1
6.523282490E-1,-2.147942781E-2,-3.018007278E-1,5.287456512E-2,3.071494177E-1
6.603336000E-1,-8.645364642E-2,-1.537432671E-1,1.259603500E-1,2.167423238E-1
6.683327410E-1,-5.871787667E-2,-8.750152588E-2,1.924686432E-1,2.194276297E-1
6.763364910E-1,-4.338797927E-2,-6.000709534E-2,2.069702148E-1,2.198181932E-1
6.843366080E-1,1.137580425E-1,-1.506123543E-1,2.011413574E-1,2.758311425E-1
6.923387180E-1,2.476817369E-1,-2.823476791E-1,1.265716553E-1,3.963418205E-1
7.003402800E-1,1.656239927E-1,-3.898139000E-1,1.378021240E-1,4.453937684E-1
7.083412180E-1,2.750918269E-3,-3.694233894E-1,1.668748856E-1,4.053744388E-1
7.163398110E-1,-1.945173591E-1,-2.841596603E-1,1.622529030E-1,3.806700935E-1
7.243356710E-1,-4.586003125E-1,-7.502269745E-2,1.251502037E-1,4.812538054E-1
7.323325070E-1,-4.862132967E-1,9.204101562E-2,4.707908630E-2,4.970828490E-1
7.403296160E-1,-2.774613500E-1,6.645679474E-2,5.204677582E-2,2.900175394E-1
7.483311780E-1,-5.632594228E-3,-3.645610809E-2,7.717323303E-2,8.553643570E-2
7.563296550E-1,1.435622275E-1,-6.110763550E-2,4.833221436E-2,1.633409294E-1
7.643279750E-1,1.114148349E-1,-6.173324585E-2,7.925224304E-2,1.500172560E-1
7.723236390E-1,5.102956295E-2,-2.634334564E-2,2.864170074E-2,6.417425633E-2
7.803175460E-1,-7.610715926E-2,2.144336700E-2,-1.040458679E-3,7.907717896E-2
7.883102800E-1,-1.506469399E-1,1.132011414E-1,1.584482193E-2,1.891032979E-1
7.963066470E-1,-1.496327221E-1,1.912622452E-1,2.689456940E-2,2.443246116E-1
8.043038350E-1,-9.932269156E-2,2.481536865E-1,2.775192261E-2,2.687292660E-1
8.122988740E-1,-4.935701191E-2,2.502603531E-1,7.366132736E-2,2.655039550E-1
8.202964130E-1,3.762274981E-3,2.045278549E-1,9.319782257E-2,2.247924204E-1
8.282933660E-1,1.648972929E-2,1.397237778E-1,1.724810600E-1,2.225856269E-1
8.362898110E-1,6.278349459E-2,8.912754059E-2,1.658134460E-1,1.984429000E-1
8.442896940E-1,6.118021905E-2,1.208209991E-2,1.736788750E-1,1.845354924E-1
8.522880930E-1,8.289076388E-2,-7.706546783E-2,2.008714676E-1,2.305630316E-1
8.602839520E-1,9.354263544E-2,-1.565113068E-1,2.373814583E-1,2.993258601E-1
8.682818820E-1,1.061970294E-1,-2.405705452E-1,2.424898148E-1,3.577056143E-1
8.762785220E-1,7.264086604E-2,-2.455115318E-1,2.258534431E-1,3.414123394E-1
8.842767250E-1,-7.038527727E-2,-2.628078461E-1,5.659675598E-2,2.778943036E-1
8.922792250E-1,-1.449180841E-1,-1.776571274E-1,-2.803945541E-2,2.309751439E-1
9.002806320E-1,-2.043798268E-1,-7.619285583E-2,-9.760856628E-2,2.389642172E-1
9.082801240E-1,-2.570251822E-1,5.423545837E-2,-5.501413345E-2,2.683840236E-1
9.162798110E-1,-2.279586345E-1,2.070817947E-1,5.092287064E-2,3.121556463E-1
9.242750850E-1,-2.043461353E-1,3.055524826E-1,1.055059433E-1,3.824279889E-1
9.322698110E-1,-1.050580889E-1,3.607902527E-1,1.579709053E-1,4.076292622E-1
9.402666470E-1,-2.168555558E-2,3.384504318E-1,2.996683121E-2,3.404658119E-1
9.482649680E-1,1.955838501E-2,3.106803894E-1,-6.350421906E-2,3.177068155E-1
9.562600850E-1,5.616503954E-2,2.805709839E-1,-9.240818024E-2,3.006889763E-1
9.642535220E-1,1.089600772E-1,2.295904160E-1,-2.180051804E-2,2.550672854E-1
9.722466860E-1,8.924503624E-2,1.602315903E-1,2.605962753E-2,1.852510275E-1
9.802403970E-1,5.221615732E-2,1.227397919E-1,4.643297195E-2,1.412359886E-1
9.882355530E-1,4.277509451E-2,7.606697083E-2,6.615781784E-2,1.095114132E-1
9.962318820E-1,1.558656991E-2,7.993507385E-2,3.755426407E-2,8.968210492E-2
1.004226647E0,1.906275749E-3,5.028533936E-2,1.130771637E-2,5.157629001E-2
1.012223327E0,1.600219905E-1,1.607894897E-3,4.470348358E-2,1.661566256E-1
1.020215085E0,2.379379719E-1,-3.261280060E-2,2.762985229E-2,2.417467311E-1
1.028207897E0,2.424905151E-1,-1.627540588E-2,5.087852478E-2,2.483045772E-1
1.036202350E0,2.381566465E-1,9.944915771E-3,6.412506104E-2,2.468390428E-1
1.044199811E0,2.146588117E-1,4.109764099E-2,5.321645737E-2,2.249431325E-1
1.052199343E0,1.313021779E-1,7.701301575E-2,4.953098297E-2,1.600768090E-1
1.060199889E0,-2.355247736E-3,1.202468872E-1,5.043697357E-2,1.304175961E-1
1.068197819E0,1.233699918E-2,7.956981659E-2,5.869388580E-2,9.964200666E-2
1.076194616E0,6.875549257E-2,2.453613281E-2,1.028008461E-1,1.260847078E-1
1.084193874E0,1.926079392E-3,-4.488468170E-2,4.394817352E-2,6.284732603E-2
1.092193522E0,1.934277117E-1,-5.911254883E-2,4.475927353E-2,2.071520351E-1
1.100190632E0,1.595571637E-1,-7.099723816E-2,-4.636287689E-3,1.747014353E-1
1.108187819E0,1.073350236E-1,-1.206693649E-1,6.973171234E-2,1.759102459E-1
1.116185085E0,1.382914484E-1,-9.363079071E-2,-2.125740051E-2,1.683541705E-1
1.124183053E0,4.634714425E-1,-4.741096497E-2,-3.806686401E-2,4.674426849E-1
1.132180671E0,8.255992085E-2,-6.295585632E-2,1.144952774E-1,1.545598555E-1
1.140178366E0,-2.756091356E-1,-1.143331528E-1,2.238950729E-1,3.730435218E-1
1.148179030E0,-3.684413135E-1,-1.875424385E-1,2.906131744E-1,5.053485776E-1
1.156179889E0,-3.228773773E-1,-1.036109924E-1,1.790533066E-1,3.834646334E-1
1.164175007E0,1.170158759E-1,1.746082306E-2,2.160072327E-3,1.183311517E-1
1.172168835E0,6.951668113E-2,1.499567032E-1,-6.295204163E-3,1.654062012E-1
1.180163366E0,-1.244279742E-1,9.643268585E-2,1.374731064E-1,2.089986571E-1
1.188161491E0,-1.436985731E-1,5.741786957E-2,1.301903725E-1,2.022266667E-1
1.196160710E0,-6.311893463E-2,6.852626801E-2,1.063556671E-1,1.413908669E-1
1.204156178E0,7.187068462E-3,6.002426147E-2,6.162405014E-2,8.632548566E-2
1.212151335E0,-2.008299530E-2,6.095123291E-2,6.262207031E-2,8.966550721E-2
1.220147233E0,-8.801728487E-3,2.583885193E-2,9.493970871E-2,9.878595539E-2
1.228145983E0,6.650763005E-2,1.219367981E-2,1.105961800E-1,1.296281825E-1
1.236144264E0,5.829970539E-2,1.036167145E-2,8.579206467E-2,1.042424973E-1
1.244142077E0,5.724266171E-2,2.521800995E-2,9.221887589E-2,1.114315548E-1
1.252137936E0,2.762347460E-2,5.679512024E-2,8.194875717E-2,1.034617844E-1
1.260134382E0,-6.776511669E-3,8.135509491E-2,5.706691742E-2,9.960524907E-2
1.268128796E0,1.135294139E-2,1.226415634E-1,6.335735321E-2,1.385063051E-1
1.276125163E0,5.104914308E-3,1.232652664E-1,5.760622025E-2,1.361574921E-1
1.284122663E0,6.407678127E-3,1.167469025E-1,6.617069244E-2,1.343482717E-1
1.292122038E0,7.218986750E-3,7.921218872E-2,2.668094635E-2,8.389611141E-2
1.300124186E0,3.450089693E-2,5.355548859E-2,3.042459488E-2,7.059857095E-2
1.308129225E0,2.469605207E-2,3.275012970E-2,8.200073242E-2,9.168743699E-2
1.316136335E0,6.264007092E-2,9.365081787E-3,1.099014282E-1,1.268456037E-1
1.324139889E0,4.081724584E-2,4.855155945E-3,1.286387444E-1,1.350464611E-1
1.332140671E0,2.409085631E-2,-2.161026001E-3,1.164236069E-1,1.189096112E-1
1.340144850E0,-9.440183640E-3,1.219272614E-2,9.249782562E-2,9.377434288E-2
1.348146764E0,-2.431997657E-2,3.850746155E-2,8.293724060E-2,9.461961601E-2
1.356148014E0,-5.676811934E-2,7.689762115E-2,9.714078903E-2,1.362798459E-1
1.364153444E0,-3.653188050E-2,1.036758423E-1,1.610956192E-1,1.950257857E-1
1.372156061E0,-2.560059726E-2,1.138191223E-1,1.195316315E-1,1.670269263E-1
1.380158405E0,-3.869929910E-2,9.999465942E-2,7.800388336E-2,1.325940175E-1
1.388161413E0,-5.693797767E-2,9.276485443E-2,9.725332260E-2,1.459639006E-1
1.396160671E0,-3.376965225E-2,9.436702728E-2,9.367513657E-2,1.371880332E-1
1.404161178E0,-7.912307978E-3,1.414575577E-1,3.845214844E-3,1.417308397E-1
1.412163639E0,-5.442957580E-2,1.796989441E-1,-8.946228027E-2,2.079850687E-1
1.420167897E0,-1.249743551E-1,1.468524933E-1,-4.738378525E-2,1.985685457E-1
1.428170905E0,-1.282085776E-1,5.916213989E-2,3.746938705E-2,1.460874845E-1
1.436172272E0,-8.580248058E-2,-9.345054626E-3,1.317906380E-1,1.575378303E-1
1.444174225E0,-5.620740354E-2,-1.610183716E-2,1.861219406E-1,1.950895132E-1
1.452175007E0,-2.127811313E-3,7.316589355E-3,1.245479584E-1,1.247808238E-1
1.460174772E0,3.108092397E-2,4.926872253E-2,8.836269379E-3,5.891952573E-2
1.468175397E0,5.068784952E-2,1.010046005E-1,-4.207134247E-3,1.130879631E-1
1.476177389E0,6.388948113E-2,1.364440918E-1,2.039718628E-2,1.520358550E-1
1.484175671E0,7.037679851E-2,1.364231110E-1,4.195880890E-2,1.591373640E-1
1.492176921E0,5.898994952E-2,1.317119598E-1,5.622482300E-2,1.548841026E-1
1.500174694E0,5.991160125E-2,1.218662262E-1,5.424928665E-2,1.462318780E-1
1.508174343E0,3.168546408E-2,1.020822525E-1,4.800701141E-2,1.171726421E-1
1.516173991E0,2.069303393E-2,9.656143188E-2,5.389738083E-2,1.125043974E-1
1.524175085E0,4.125481844E-2,8.851814270E-2,5.041074753E-2,1.099029804E-1
1.532174225E0,3.750372678E-2,7.088851929E-2,3.495836258E-2,8.748599204E-2
1.540170358E0,2.934950590E-2,6.776523590E-2,2.170610428E-2,7.697191472E-2
1.548165593E0,2.608247101E-2,8.158493042E-2,3.691530228E-2,9.326915732E-2
1.556164343E0,2.057421207E-2,9.803962708E-2,4.459142685E-2,1.096515482E-1
1.564161960E0,5.466744304E-3,7.881355286E-2,4.235267639E-2,8.963933626E-2
1.572158874E0,-2.492904663E-3,5.037689209E-2,7.787847519E-2,9.278525060E-2
1.580157077E0,-5.923911929E-3,5.092525482E-2,9.865903854E-2,1.111848919E-1
1.588155436E0,-4.277406633E-2,2.293014526E-2,1.071968079E-1,1.176714406E-1
1.596152272E0,-3.193944693E-2,1.394939423E-2,1.087512970E-1,1.141996430E-1
1.604149499E0,-1.689049602E-2,-7.294654846E-3,1.179022789E-1,1.193291591E-1
1.612145944E0,-8.730933070E-3,-2.626132965E-2,1.439929008E-1,1.466282446E-1
1.620144343E0,2.986803651E-2,-2.613639832E-2,1.510009766E-1,1.561297724E-1
1.628141100E0,5.412138999E-2,-2.366542816E-2,1.580786705E-1,1.687543878E-1
1.636136413E0,7.383219898E-2,-1.648998260E-2,1.365599632E-1,1.561144986E-1
1.644133210E0,7.156601548E-2,-1.171493530E-2,1.102471352E-1,1.319597101E-1
1.652130163E0,9.610993415E-2,-2.352714539E-3,6.030130386E-2,1.134852499E-1
1.660126725E0,1.541029811E-1,-1.010894775E-4,4.376745224E-2,1.601977805E-1
1.668122038E0,1.338832080E-1,6.781578064E-3,8.973979950E-2,1.613193566E-1
1.676119069E0,1.078979969E-1,3.951644897E-2,7.900381088E-2,1.394457945E-1
1.684115358E0,3.124773502E-2,6.744480133E-2,8.264827728E-2,1.111573655E-1
1.692109850E0,5.418881774E-3,8.350181580E-2,2.392005920E-2,8.702922930E-2
1.700105436E0,1.636274159E-2,7.784652710E-2,7.559490204E-2,1.097379165E-1
1.708099850E0,1.767462492E-2,5.756855011E-2,4.385423660E-2,7.449647237E-2
1.716093483E0,-3.508627415E-4,5.842876434E-2,-1.841068268E-2,6.126170781E-2
1.724089733E0,-1.523701847E-2,7.138347626E-2,-6.167697906E-2,9.556054186E-2
1.732081452E0,-5.423954129E-2,4.878139496E-2,-2.167129517E-2,7.609991700E-2
1.740074928E0,-9.799218178E-2,5.032825470E-2,8.454799652E-3,1.104847707E-1
1.748068600E0,-1.422328800E-1,6.618118286E-2,2.189731598E-2,1.583970756E-1
1.756063952E0,-1.390697360E-1,8.893871307E-2,1.418638229E-2,1.656856650E-1
1.764060163E0,-1.147833169E-1,1.353769302E-1,-1.230525970E-2,1.779144246E-1
1.772055163E0,-1.028303206E-1,1.578168869E-1,-2.675294876E-2,1.902523716E-1
1.780050046E0,-1.003632098E-1,1.589794159E-1,3.262662888E-2,1.908185669E-1
1.788044772E0,-8.635120094E-2,1.557998657E-1,8.653783798E-2,1.980376870E-1
1.796042663E0,-3.699058294E-2,1.456422806E-1,9.703350067E-2,1.788727966E-1
1.804040944E0,-2.254694700E-4,1.045646667E-1,1.000189781E-1,1.446983633E-1
1.812040319E0,1.426884532E-2,8.538722992E-2,1.287884712E-1,1.551806989E-1
1.820040397E0,1.156915724E-2,7.353210449E-2,1.286034584E-1,1.485922787E-1
1.828037858E0,6.286308169E-3,9.057903290E-2,1.449198723E-1,1.710141756E-1
1.836037585E0,-2.254201472E-2,9.806060791E-2,1.348967552E-1,1.682889177E-1
1.844039264E0,-5.593903363E-2,1.079921722E-1,1.152215004E-1,1.675335158E-1
1.852041608E0,-7.278685272E-2,1.037473679E-1,8.568382263E-2,1.529809129E-1
1.860040671E0,-6.817965209E-2,9.732437134E-2,6.779479980E-2,1.368087464E-1
1.868039889E0,-6.184643507E-2,7.911109924E-2,1.070713997E-1,1.467917988E-1
1.876041139E0,-1.223887503E-2,9.698486328E-2,1.221570969E-1,1.564551376E-1
1.884043483E0,1.589694619E-2,1.195983887E-1,4.633951187E-2,1.292433280E-1
1.892044382E0,1.796740294E-2,1.280450821E-1,3.967142105E-2,1.352486313E-1
1.900046686E0,-2.927972376E-2,1.659488678E-1,7.027912140E-2,1.825800752E-1
1.908043991E0,-7.139882445E-2,1.591482162E-1,1.236839294E-1,2.138309175E-1
1.916041647E0,-1.134902686E-1,1.264905930E-1,1.069574356E-1,2.007979188E-1
1.924040241E0,-1.456241310E-1,1.008958817E-1,6.409168243E-2,1.883988063E-1
1.932042116E0,-1.408655494E-1,5.574512482E-2,4.571008682E-2,1.582404310E-1
1.940042897E0,-1.100127250E-1,3.431892395E-2,5.158233643E-2,1.262589626E-1
1.948043288E0,-6.369015574E-2,1.270389557E-2,8.162832260E-2,1.043120700E-1
1.956045788E0,-6.850084662E-2,4.344558716E-2,5.703878403E-2,9.916303704E-2
1.964049772E0,-1.360987574E-1,5.960655212E-2,3.993225098E-2,1.538518686E-1
1.972055163E0,-2.058240622E-1,6.863403320E-2,1.319074631E-2,2.173664438E-1
1.980058678E0,-2.158144861E-1,6.330966949E-2,3.430891037E-2,2.275106767E-1
1.988061569E0,-2.855748236E-1,6.036281586E-2,5.183219910E-3,2.919306685E-1
1.996067741E0,-2.903074026E-1,8.848190308E-2,-9.474277496E-3,3.036399136E-1
2.004071803E0,-2.503817976E-1,9.032058716E-2,-9.878158569E-3,2.663577125E-1
2.012078718E0,-1.544966549E-1,8.006763458E-2,-7.756710052E-3,1.741844110E-1
2.020082585E0,-1.406003237E-1,7.437324524E-2,-1.489305496E-2,1.597549176E-1
2.028083171E0,-1.944287121E-2,6.632804871E-2,2.578353882E-2,7.377144543E-2
2.036081061E0,9.392375499E-2,4.643154144E-2,8.542633057E-2,1.351858637E-1
2.044082546E0,3.810875416E-1,5.545425415E-2,1.495618820E-1,4.131242491E-1
2.052082468E0,6.712792516E-1,6.197738647E-2,8.938455582E-2,6.800342851E-1
2.060079264E0,1.202535033E0,6.099319458E-2,1.158566475E-1,1.209641864E0
2.068078171E0,8.188132048E-1,1.079797745E-1,1.829047203E-1,8.459130172E-1
2.076076413E0,4.837962091E-1,6.385803223E-2,9.700345993E-2,4.975402410E-1
2.084075280E0,-3.871696591E-1,5.510330200E-3,8.046770096E-2,3.954816805E-1
2.092075593E0,-5.550588965E-1,-2.897167206E-2,9.041976929E-2,5.631211869E-1
2.100076139E0,-1.344138831E-1,6.827926636E-2,9.543609619E-2,1.784298143E-1
2.108078874E0,4.138941318E-2,7.486915588E-2,1.167368889E-1,1.447272443E-1
2.116079264E0,2.591850460E-1,1.989250183E-1,-3.452539444E-2,3.285423166E-1
2.124079069E0,-2.610167861E-1,6.717967987E-2,1.034107208E-1,2.886808778E-1
2.132079772E0,-1.732492149E-1,5.545520782E-2,7.090854645E-2,1.952398333E-1
2.140082819E0,2.086801827E-2,6.523704529E-2,3.125047684E-2,7.528571290E-2
2.148086764E0,1.278509200E-2,2.456283569E-2,2.540969849E-2,3.758249928E-2
2.156090905E0,1.344743818E-1,-2.446174622E-3,5.411005020E-2,1.449732412E-1
2.164097624E0,2.237961888E-1,-2.718830109E-2,8.296203613E-2,2.402220583E-1
2.172102077E0,2.375302613E-1,-2.551269531E-2,3.921985626E-3,2.389286601E-1
2.180104225E0,9.618424624E-2,-4.272556305E-2,-6.829929352E-2,1.254658378E-1
2.188107702E0,-3.620669246E-3,-9.843397141E-2,1.299953461E-2,9.935463689E-2
2.196106139E0,-2.024696767E-2,-1.403021812E-1,1.022229195E-1,1.747688960E-1
2.204103132E0,7.435858250E-3,-7.286119461E-2,1.159820557E-1,1.371709988E-1
2.212099811E0,9.064763784E-3,3.690242767E-2,1.164932251E-1,1.225342018E-1
2.220096100E0,2.099938691E-2,1.463823318E-1,3.123712540E-2,1.511440350E-1
2.228094538E0,5.152523518E-4,2.080440521E-1,-1.098871231E-2,2.083346944E-1
2.236092585E0,-4.666671157E-3,2.130050659E-1,-1.605987549E-3,2.130622330E-1
2.244092624E0,-1.952128112E-2,1.852369308E-1,3.297901154E-2,1.891597636E-1
2.252091569E0,-3.731353581E-2,1.337985992E-1,9.589052200E-2,1.687879063E-1
2.260091608E0,-5.513890088E-2,6.545543671E-2,1.230978966E-1,1.499259975E-1
2.268092194E0,-6.383943558E-2,1.838207245E-2,1.650543213E-1,1.779221827E-1
2.276093757E0,-4.410268366E-2,6.372451782E-3,1.627321243E-1,1.687228471E-1
2.284093678E0,-1.761163771E-2,1.282978058E-2,1.134977341E-1,1.155703625E-1
2.292094421E0,4.469767213E-3,6.667137146E-2,4.104757309E-2,7.842164145E-2
2.300094225E0,2.433700860E-2,1.204748154E-1,-3.134012222E-2,1.268411384E-1
2.308093874E0,8.743926883E-3,1.317510605E-1,-4.227972031E-2,1.386447725E-1
2.316093874E0,-1.603432000E-2,9.797573090E-2,2.516794205E-2,1.024195712E-1
2.324092389E0,-4.279774427E-2,6.475925446E-2,3.436946869E-2,8.489209816E-2
2.332091413E0,-3.358216584E-2,5.793285370E-2,2.433967590E-2,7.124884015E-2
2.340089264E0,-4.563179612E-2,2.703094482E-2,2.887725830E-2,6.038897948E-2
2.348087428E0,-5.760529637E-2,1.751232147E-2,1.928949356E-2,6.322290831E-2
2.356082389E0,-5.548779666E-2,3.410148621E-2,1.480865479E-2,6.679149045E-2
2.364076452E0,-7.992386818E-2,4.582309723E-2,4.156398773E-2,1.010700055E-1
2.372071999E0,-9.499818087E-2,8.627605438E-2,7.549047470E-2,1.488859419E-1
2.380067936E0,-7.219313085E-2,8.354568481E-2,6.164741516E-2,1.264600071E-1
2.388068053E0,-3.779204190E-2,8.329200745E-2,6.443357468E-2,1.118815556E-1
2.396066530E0,-1.320485771E-2,6.893920898E-2,3.809976578E-2,7.986598121E-2
2.404064538E0,4.362955689E-3,5.001258850E-2,1.385831833E-2,5.208020140E-2
2.412061218E0,1.235204935E-2,5.042648315E-2,1.328897476E-2,5.359104568E-2
2.420058405E0,2.772153914E-2,4.618358612E-2,-2.337360382E-2,5.871739704E-2
2.428057428E0,1.718150079E-2,5.864715576E-2,2.145528793E-2,6.476899126E-2
2.436055397E0,-2.142228186E-2,5.388069153E-2,8.134984970E-2,9.989915478E-2
2.444050319E0,-3.463473916E-2,4.186534882E-2,4.074764252E-2,6.791644101E-2
2.452045475E0,-3.573204577E-2,4.910087585E-2,5.986833572E-2,8.527539344E-2
2.460045241E0,-3.652080894E-3,6.357192993E-2,9.087467194E-2,1.109636606E-1
2.468047155E0,3.624540567E-2,5.383110046E-2,7.919216156E-2,1.023861087E-1
2.476043561E0,5.476020277E-2,4.124355316E-2,2.027988434E-2,7.149114766E-2
2.484041061E0,5.610744655E-2,3.589439392E-2,2.831411362E-2,7.237501021E-2
2.492038327E0,4.034332931E-2,3.807449341E-2,8.851099014E-2,1.044578702E-1
2.500034850E0,-2.806085348E-2,5.960941315E-2,9.814119339E-2,1.182048539E-1
2.508028327E0,-7.294015586E-2,6.431388855E-2,5.279254913E-2,1.106507833E-1
2.516018718E0,-8.250613511E-2,6.886482239E-2,3.876924515E-2,1.142483280E-1
2.524016569E0,-5.653443933E-2,8.072090149E-2,5.089235306E-2,1.109145544E-1
2.532014343E0,-2.566049993E-2,8.072662354E-2,-2.573919296E-2,8.853109656E-2
2.540013874E0,-6.966546178E-3,6.899547577E-2,7.419586182E-3,6.974208702E-2
2.548013835E0,1.187513769E-2,7.660579681E-2,1.876640320E-2,7.975992032E-2
2.556014733E0,5.940802395E-2,6.285762787E-2,2.265691757E-2,8.940766525E-2
2.564011647E0,8.774922788E-2,5.640411377E-2,7.666587830E-2,1.294565871E-1
2.572013014E0,6.403467059E-2,5.486488342E-2,7.783985138E-2,1.147590386E-1
2.580012038E0,4.988522828E-2,3.649330139E-2,6.236171722E-2,8.780251034E-2
2.588013093E0,3.072655201E-2,2.767372131E-2,6.845712662E-2,7.997708443E-2
2.596011647E0,2.607968450E-2,2.613162994E-2,5.527067184E-2,6.646697822E-2
2.604011530E0,1.419109106E-2,2.927017212E-2,5.420780182E-2,6.321879325E-2
2.612008405E0,2.461433411E-3,2.521419525E-2,6.753396988E-2,7.212940721E-2
2.620006335E0,-2.120330930E-2,2.581310272E-2,8.104944229E-2,8.766361100E-2
2.628001999E0,-2.788645029E-2,1.893901825E-2,5.668306351E-2,6.594930030E-2
2.636001999E0,-3.682196140E-2,4.558849335E-2,6.583356857E-2,8.813754205E-2
2.644000553E0,-1.233203709E-2,7.450771332E-2,4.882240295E-2,8.992833543E-2
2.651999616E0,-1.907053590E-2,8.175182343E-2,4.396152496E-2,9.476107666E-2
2.659996647E0,-1.838350296E-2,8.884048462E-2,4.412269592E-2,1.008830867E-1
2.667994538E0,-2.270889282E-2,7.915973663E-2,5.386161804E-2,9.840239639E-2
2.675991452E0,-1.060074568E-2,7.910728455E-2,4.676151276E-2,9.250393155E-2
2.683991178E0,-1.767353714E-2,7.412433624E-2,4.943513870E-2,9.083283590E-2
2.691990514E0,-2.933073044E-2,7.167625427E-2,5.910062790E-2,9.742002562E-2
2.699987858E0,-5.072064698E-2,7.895183563E-2,4.221439362E-2,1.028981604E-1
2.707983561E0,-7.943038642E-2,8.164787292E-2,2.263116837E-2,1.161366920E-1
2.715979460E0,-7.465396821E-2,6.540298462E-2,4.344081879E-2,1.083414515E-1
2.723975475E0,-5.812075734E-2,5.392742157E-2,-3.714561462E-4,7.928636207E-2
2.731969850E0,-4.381613433E-2,5.198001862E-2,-2.734756470E-2,7.327799982E-2
2.739962468E0,-1.041559875E-2,6.669139862E-2,3.276824951E-3,6.757932324E-2
2.747960553E0,-2.577157319E-2,7.401084900E-2,7.919311523E-3,7.876861843E-2
2.755959460E0,-2.078084648E-2,7.632637024E-2,3.437376022E-2,8.625029719E-2
2.763957936E0,-4.433542490E-4,8.104801178E-2,4.408884048E-2,9.226485047E-2
2.771956022E0,7.652625442E-3,8.099842072E-2,5.137634277E-2,9.622284257E-2
2.779950905E0,1.815539598E-2,8.582878113E-2,-8.506774902E-3,8.813945367E-2
2.787946139E0,4.151925445E-3,1.123800278E-1,4.626560211E-2,1.216018711E-1
2.795940827E0,-6.701128185E-2,1.080293655E-1,6.960725784E-2,1.449345578E-1
2.803938327E0,-8.129046857E-2,8.706092834E-2,8.554077148E-2,1.466457265E-1
2.811937350E0,-7.228943706E-2,2.795219421E-2,1.107888222E-1,1.352081765E-1
2.819937702E0,-1.103810966E-2,2.895069122E-2,3.031826019E-2,4.334950159E-2
2.827936335E0,3.398637474E-2,3.955745697E-2,2.643632889E-2,5.847003980E-2
2.835934850E0,3.450286388E-2,4.500389099E-2,5.185031891E-2,7.683913971E-2
2.843934264E0,2.831643820E-2,3.331184387E-2,7.773685455E-2,8.918810554E-2
2.851934772E0,2.592223883E-2,3.331184387E-2,1.069879532E-2,4.354429502E-2
2.859935280E0,-1.706007123E-2,3.641891479E-2,-8.855915070E-2,9.726307911E-2
2.867940046E0,-6.417737901E-2,3.926277161E-3,-5.895519257E-2,8.723454797E-2
2.875942155E0,-2.786153555E-2,-1.664543152E-2,1.859092712E-2,3.740264864E-2
2.883942272E0,3.416991234E-2,-3.042602539E-2,7.752227783E-2,9.001682893E-2
2.891949772E0,6.713598967E-2,-4.156112671E-3,4.160404205E-2,7.909115435E-2
2.899955671E0,4.237163067E-2,8.622360229E-2,-1.032114029E-2,9.662499995E-2
2.907953600E0,3.316760063E-2,1.622781754E-1,-4.310846329E-2,1.711509145E-1
2.915953288E0,-3.626510501E-3,2.221107483E-1,-5.746984482E-2,2.294539587E-1
2.923954303E0,4.936203361E-3,2.178411484E-1,-7.978963852E-2,2.320463713E-1
2.931962116E0,5.888955295E-2,1.900272369E-1,-2.535142899E-1,3.222542868E-1
2.939975553E0,1.030787528E-1,1.598920822E-1,-2.573614120E-1,3.200400032E-1
2.947988053E0,2.225743234E-2,8.139324188E-2,6.166362762E-2,1.045115118E-1
2.956004264E0,1.431070268E-2,1.738452911E-2,8.606052399E-2,8.895747216E-2
2.964018835E0,-4.437915981E-2,-1.576423645E-2,1.467370987E-1,1.541096918E-1
2.972032272E0,-9.061120450E-2,-5.154800415E-2,2.700252533E-1,2.894498653E-1
2.980043210E0,-1.762554795E-1,-4.517078400E-2,4.258046150E-1,4.630507142E-1
2.988051452E0,-2.695943713E-1,-4.964447021E-2,4.947896004E-1,5.656522316E-1
2.996061843E0,-2.507473230E-1,-2.955579758E-2,3.891878128E-1,4.639126198E-1
3.004072194E0,-1.810206473E-2,4.772377014E-2,-6.216239929E-2,8.043262317E-2
3.012081178E0,1.013899967E-1,1.137561798E-1,-2.621450424E-1,3.032167923E-1
3.020093171E0,7.017653435E-2,8.275127411E-2,2.709865570E-2,1.118340578E-1
3.028104694E0,1.428334713E-1,5.285072327E-2,-3.713655472E-2,1.567600816E-1
3.036116608E0,5.450143814E-1,-5.461692810E-3,-3.508467674E-1,6.482005556E-1
3.044130436E0,1.711538434E-2,5.916309357E-2,-2.731323242E-1,2.799901330E-1
3.052142233E0,-1.687204987E-1,9.169578552E-2,5.631637573E-2,2.001156114E-1
3.060153405E0,-1.165855229E-1,7.431983948E-2,1.721034050E-1,2.207605144E-1
3.068164616E0,-1.196721196E-2,5.422210693E-2,1.183671951E-1,1.307441927E-1
3.076177975E0,4.560409486E-2,6.243038177E-2,4.611063004E-2,9.001931037E-2
3.084189460E0,6.818565726E-2,6.587696075E-2,4.567527771E-2,1.052391981E-1
3.092203249E0,6.736557186E-2,1.030778885E-1,4.731559753E-2,1.319164021E-1
3.100216921E0,4.915595055E-2,1.235923767E-1,-1.446247101E-3,1.330168211E-1
3.108230358E0,1.995089650E-2,1.177396774E-1,4.937648773E-3,1.195200832E-1
3.116247155E0,-4.364326596E-3,6.861114502E-2,7.383489609E-2,1.008867110E-1
3.124263327E0,-1.376022398E-2,2.202033997E-2,1.520400047E-1,1.542413763E-1
3.132279772E0,-3.798106313E-2,2.042770386E-3,1.364555359E-1,1.416575001E-1
3.140294772E0,-6.813246012E-2,-1.097679138E-3,1.495332718E-1,1.643272235E-1
3.148307858E0,-5.271890759E-2,-2.397632599E-2,9.393978119E-2,1.103577361E-1
3.156323171E0,-3.445026278E-2,-3.559303284E-2,3.220129013E-2,5.908136490E-2
3.164337272E0,-1.026128232E-2,-3.787326813E-2,2.113008499E-2,4.456634207E-2
3.172351178E0,-2.218025923E-2,-1.860809326E-2,1.245260239E-2,3.151654074E-2
3.180365905E0,-5.994446576E-2,2.250862122E-2,-6.219387054E-3,6.433240070E-2
3.188380905E0,-9.539134800E-2,6.866741180E-2,-2.047109604E-2,1.193054420E-1
3.196395983E0,-1.069917679E-1,1.104402542E-1,-4.009199142E-2,1.589076962E-1
3.204411022E0,-9.021744132E-2,1.286449432E-1,-2.196216583E-2,1.586538524E-1
3.212425671E0,-4.911153018E-2,1.469926834E-1,-3.275203705E-2,1.584029271E-1
3.220438600E0,5.360096693E-4,1.224355698E-1,-2.949047089E-2,1.259382544E-1
3.228452428E0,3.197626770E-2,1.028499603E-1,-1.209497452E-2,1.083830450E-1
3.236469303E0,5.142769217E-2,8.340835571E-2,1.945638657E-2,9.990151302E-2
3.244484343E0,5.742022395E-2,7.350921631E-2,1.030492783E-2,9.384497077E-2
3.252497077E0,4.489186406E-2,7.787895203E-2,2.525424957E-2,9.337123620E-2
3.260509772E0,3.547608852E-2,9.654712677E-2,3.075218201E-2,1.073573344E-1
3.268526335E0,-7.210075855E-4,1.030435562E-1,3.652477264E-2,1.093277337E-1
3.276540788E0,-2.484686673E-2,1.168708801E-1,7.799959183E-2,1.426888424E-1
3.284552663E0,-4.167787731E-2,9.475994110E-2,9.796619415E-2,1.425267241E-1
3.292566647E0,-3.718435764E-2,9.178543091E-2,7.724952698E-2,1.255974968E-1
3.300581725E0,-1.616378129E-2,7.915496826E-2,7.579040527E-2,1.107743759E-1
3.308594850E0,9.375154972E-3,6.674480438E-2,6.921768188E-2,9.661185190E-2
3.316610124E0,3.757336736E-2,4.481601715E-2,6.496238708E-2,8.740906740E-2
3.324627389E0,4.170680046E-2,2.776241302E-2,7.494258881E-2,9.014765886E-2
3.332638952E0,4.355272651E-2,3.460216522E-2,1.041517258E-1,1.180751109E-1
3.340652077E0,4.100888968E-2,4.140281677E-2,9.033632278E-2,1.075015046E-1
3.348664108E0,2.186872065E-2,4.796314240E-2,6.011295319E-2,7.995167986E-2
3.356677428E0,2.188771963E-2,6.633281708E-2,6.125164032E-2,9.290252060E-2
3.364692936E0,3.399083018E-2,6.791496277E-2,4.807090759E-2,8.988120416E-2
3.372707468E0,3.205576539E-2,6.728458405E-2,7.055044174E-2,1.026262743E-1
3.380720514E0,1.603342593E-2,5.958747864E-2,6.892776489E-2,9.251364835E-2
3.388733053E0,2.413198352E-3,3.772830963E-2,7.180118561E-2,8.114591258E-2
3.396746022E0,-7.030040026E-3,3.495693207E-2,5.320167542E-2,6.404550593E-2
3.404761257E0,-3.828413785E-2,4.177284241E-2,5.373096466E-2,7.808752869E-2
3.412774264E0,-4.795593023E-2,3.901672363E-2,3.509807587E-2,7.109114500E-2
3.420787350E0,-3.903348744E-2,6.003856659E-2,2.626180649E-2,7.627532432E-2
3.428796843E0,-5.890402198E-2,5.707073212E-2,-6.447792053E-3,8.226983829E-2
3.436806608E0,-6.670711935E-2,7.329368591E-2,-2.484226227E-2,1.021711415E-1
3.444817350E0,-6.685557961E-2,7.978916168E-2,-7.089614868E-3,1.043371530E-1
3.452821803E0,-5.498480797E-2,8.390331268E-2,1.064729691E-2,1.008784413E-1
3.460826296E0,-3.102380037E-2,8.324623108E-2,2.118062973E-2,9.132924096E-2
3.468835280E0,-2.184659243E-3,7.805347443E-2,3.374433517E-2,8.506349254E-2
3.476848014E0,1.934066415E-2,7.778644562E-2,3.173685074E-2,8.620916486E-2
3.484859343E0,2.192629874E-2,7.273960114E-2,3.451347351E-2,8.344454448E-2
3.492870163E0,-9.217321873E-3,1.011743546E-1,2.776145935E-2,1.053181260E-1
3.500882507E0,-1.641571522E-2,1.008987427E-1,2.337408066E-2,1.048636239E-1
3.508894225E0,-2.428397536E-3,1.102237701E-1,4.048681259E-2,1.174493875E-1
3.516906413E0,1.856744289E-3,1.030187607E-1,9.378910065E-3,1.034614735E-1
3.524919225E0,-3.553926945E-4,1.029777527E-1,4.296350479E-2,1.115813900E-1
3.532929460E0,6.060332060E-3,7.609558105E-2,7.493877411E-2,1.069723560E-1
3.540939421E0,6.241495907E-2,6.772613525E-2,8.629179001E-2,1.262090707E-1
3.548949499E0,1.410898566E-1,9.292888641E-2,2.328586578E-2,1.705413648E-1
3.556956218E0,1.254346073E-1,1.090793610E-1,-3.093433380E-2,1.690830586E-1
3.564963678E0,4.354190826E-2,5.882644653E-2,9.711265564E-3,7.382924397E-2
3.572970475E0,1.406767964E-2,-2.243614197E-2,6.694030762E-2,7.198808833E-2
3.580980788E0,7.643505931E-3,-9.688901901E-2,1.893281937E-1,2.128169873E-1
3.588992038E0,5.712822080E-3,-9.313344955E-2,1.692204475E-1,1.932408746E-1
3.597003405E0,-8.225396276E-3,-4.234790802E-2,8.332204819E-2,9.382732103E-2
3.605013718E0,-3.129354119E-2,2.460765839E-2,1.266622543E-2,4.177625927E-2
3.613022702E0,-4.425999522E-2,8.453655243E-2,-7.916450500E-3,9.574991416E-2
3.621032819E0,-5.645926297E-2,1.211404800E-1,2.330017090E-2,1.356671008E-1
3.629043210E0,-5.692395568E-2,1.485042572E-1,1.331424713E-2,1.595967428E-1
3.637049343E0,-4.976122081E-2,1.664190292E-1,3.428077698E-2,1.770498350E-1
3.645058327E0,-2.504354715E-2,1.460905075E-1,2.884578705E-2,1.510023015E-1
3.653070788E0,2.311199903E-3,1.472568512E-1,5.462217331E-2,1.570780178E-1
3.661079616E0,-4.286289215E-3,1.196041107E-1,5.417776108E-2,1.313725442E-1
3.669090241E0,-1.971885562E-2,7.999992371E-2,7.767677307E-2,1.132364876E-1
3.677098913E0,-3.741233051E-2,3.084945679E-2,7.240200043E-2,8.714023826E-2
3.685110007E0,-4.352290928E-2,3.333091736E-3,5.501985550E-2,7.023202711E-2
3.693119968E0,-4.030220211E-2,7.055282593E-3,5.182838440E-2,6.603200691E-2
3.701132819E0,-4.204933345E-2,8.536338806E-3,2.685689926E-2,5.061925090E-2
3.709147936E0,-2.441430092E-2,1.985549927E-2,1.348114014E-2,3.423507091E-2
3.717160241E0,-3.109656274E-2,4.087638855E-2,4.060888290E-2,6.547485568E-2
3.725173835E0,-6.382480264E-2,6.916427612E-2,3.649950027E-2,1.009431327E-1
3.733188093E0,-7.985650003E-2,7.588863373E-2,1.086378098E-2,1.106985414E-1
3.741201569E0,-5.985648930E-2,8.972263336E-2,4.493713379E-3,1.079497277E-1
3.749214186E0,-4.003769159E-2,9.641456604E-2,4.115390778E-2,1.122159945E-1
3.757227428E0,-1.063831151E-2,9.349536896E-2,3.955698013E-2,1.020750330E-1
3.765242311E0,-1.473608613E-2,9.069252014E-2,8.327770233E-2,1.240058916E-1
3.773256921E0,-1.876519620E-2,6.158351898E-2,1.149883270E-1,1.317838296E-1
3.781270905E0,-2.584347129E-2,4.204463959E-2,1.083769798E-1,1.190848709E-1
3.789286803E0,-3.050093353E-2,3.215122223E-2,6.335830688E-2,7.731935778E-2
3.797299772E0,-4.944412410E-2,4.850006104E-2,-2.221870422E-2,7.273684174E-2
3.805310202E0,-5.875436962E-2,7.919692993E-2,-1.439666748E-2,9.965687981E-2
3.813320475E0,-1.061655432E-1,9.535598755E-2,-1.349449158E-2,1.433387185E-1
3.821330475E0,-1.286956519E-1,1.308307648E-1,1.353740692E-2,1.840177198E-1
3.829342468E0,-1.358782500E-1,1.667442322E-1,-8.010387421E-3,2.152456831E-1
3.837349421E0,-1.240954697E-1,1.890649796E-1,4.830360413E-2,2.312541681E-1
3.845358014E0,-3.730507195E-2,1.628522873E-1,6.490373611E-2,1.792345693E-1
3.853367468E0,4.719400406E-2,1.288461685E-1,-6.178855896E-3,1.373564248E-1
3.861378132E0,1.242068112E-1,1.088819504E-1,-4.327440262E-2,1.707491874E-1
3.869393366E0,1.488409042E-1,8.926868439E-2,-4.263401031E-3,1.736107410E-1
3.877403913E0,1.236255094E-1,8.938503265E-2,4.349040985E-2,1.586328037E-1
3.885415397E0,8.595247567E-2,7.550144196E-2,5.716848373E-2,1.278926555E-1
3.893424303E0,4.550065100E-2,6.174182892E-2,7.064962387E-2,1.042771885E-1
3.901437663E0,1.437748969E-2,6.001567841E-2,6.487464905E-2,8.953945473E-2
3.909450085E0,6.829559803E-3,4.631233215E-2,4.233932495E-2,6.311967549E-2
3.917461960E0,8.571431041E-3,2.548694611E-2,2.688503265E-2,3.802445046E-2
3.925472585E0,1.711656153E-2,3.347587585E-2,2.326393127E-2,4.421336270E-2
3.933479577E0,3.534340858E-2,2.487945557E-2,4.333257675E-2,6.120339899E-2
3.941488288E0,2.478517592E-2,4.501819611E-2,5.381917953E-2,7.441402430E-2
3.949496452E0,2.405890822E-2,7.243537903E-2,8.572101593E-2,1.147772093E-1
3.957505319E0,-9.713009000E-3,8.541679382E-2,7.704210281E-2,1.154376750E-1
3.965513366E0,-3.645955026E-2,1.103115082E-1,5.647230148E-2,1.291783592E-1
3.973522585E0,-3.419657052E-2,1.257410049E-1,5.729913712E-2,1.423495587E-1
3.981535827E0,-4.384820163E-2,1.484212875E-1,1.493072510E-2,1.554814135E-1
3.989549264E0,-2.258038521E-2,1.399183273E-1,-2.496290207E-2,1.439102449E-1
3.997560866E0,-2.037818730E-2,1.171150208E-1,9.272575378E-3,1.192358137E-1
4.005569499E0,1.031038165E-2,1.064882278E-1,3.840875626E-2,1.136718048E-1
4.013578835E0,1.497749984E-2,6.710720062E-2,8.674764633E-2,1.106926195E-1
4.021588288E0,1.002016664E-2,4.671955109E-2,9.701061249E-2,1.081396279E-1
4.029596257E0,1.237462461E-2,2.382278442E-2,9.787273407E-2,1.014875779E-1
4.037604655E0,1.492138207E-2,3.182697296E-2,8.470392227E-2,9.170800564E-2
4.045615475E0,-1.650281250E-2,2.782440186E-2,3.805208206E-2,4.994498081E-2
4.053629147E0,-2.078562975E-3,2.869987488E-2,5.592823029E-2,6.289650376E-2
4.061640553E0,3.050029278E-3,3.929138184E-2,6.163883209E-2,7.316051522E-2
4.069651647E0,-1.327440143E-3,3.069782257E-2,3.866815567E-2,4.938972232E-2
4.077660632E0,1.208938658E-2,2.440929413E-2,3.262329102E-2,4.249995323E-2
4.085671452E0,2.773177624E-2,3.971767426E-2,2.889728546E-2,5.640565724E-2
4.093681100E0,2.201250196E-2,6.933498383E-2,6.108283997E-3,7.300137915E-2
4.101691257E0,1.894055307E-2,4.840469360E-2,2.681636810E-2,5.848825961E-2
4.109702389E0,6.251171231E-3,3.948020935E-2,5.465888977E-2,6.771527378E-2
4.117714460E0,-1.585811377E-3,4.724502563E-2,7.542085648E-2,8.901074562E-2
4.125727233E0,-6.942659616E-3,4.770278931E-2,9.397554398E-2,1.056179885E-1
4.133737233E0,-2.901303768E-2,6.478404999E-2,5.527067184E-2,8.996430767E-2
4.141748561E0,-2.257423103E-2,7.710266113E-2,9.073972702E-2,1.211945309E-1
4.149757975E0,-2.121433616E-2,6.548786163E-2,9.985160828E-2,1.212808796E-1
4.157768678E0,-2.494418621E-2,5.859947205E-2,1.210107803E-1,1.367469177E-1
4.165780046E0,-5.070026219E-2,8.036804199E-2,5.606842041E-2,1.103322552E-1
4.173793757E0,-5.291298032E-2,8.541011810E-2,4.133939743E-2,1.086444547E-1
4.181809303E0,-5.262246728E-2,7.155990601E-2,8.369636536E-2,1.220451793E-1
4.189819538E0,-7.411827147E-2,6.980133057E-2,8.995246887E-2,1.358572434E-1
4.197831764E0,-7.202740014E-2,1.206941605E-1,5.073738098E-2,1.494299454E-1
4.205844382E0,-4.358518124E-2,8.290386200E-2,8.588695526E-2,1.270798467E-1
4.213857428E0,-2.435673773E-2,4.965019226E-2,2.804183960E-2,6.200594353E-2
4.221867741E0,-5.520522594E-3,4.502677917E-2,2.779054642E-2,5.319963799E-2
4.229878639E0,-3.137409687E-3,4.764080048E-2,3.465270996E-2,5.899406341E-2
4.237891530E0,2.131605148E-2,6.709194183E-2,1.508378983E-2,7.199460692E-2
4.245902819E0,2.480134368E-3,5.791664124E-2,1.929998398E-2,6.109809964E-2
4.253916803E0,2.454465628E-2,7.524013519E-2,6.529331207E-3,7.941127289E-2
4.261929850E0,2.732670307E-2,7.121753693E-2,1.500558853E-2,7.774222761E-2
4.269940046E0,1.045650244E-2,7.687568665E-2,4.725503922E-2,9.084188666E-2
4.277952741E0,7.507309318E-3,6.591987610E-2,1.654667854E-1,1.782723951E-1
4.285967546E0,4.707440734E-3,5.761528015E-2,1.324763298E-1,1.445394703E-1
4.293981452E0,-1.424479485E-2,6.582832336E-2,1.190156937E-1,1.367516643E-1
4.301996257E0,-4.611966014E-2,1.568870544E-1,-2.229356766E-2,1.650380988E-1
4.310007936E0,-2.790185809E-2,1.035947800E-1,2.894401550E-2,1.111222217E-1
4.318021022E0,6.727029383E-2,8.932018280E-2,-4.303836823E-2,1.198152270E-1
4.326033288E0,6.386983395E-2,8.106040955E-2,-7.132816315E-2,1.254505980E-1
4.334048171E0,-1.367752254E-2,6.848430634E-2,-2.368402481E-2,7.374352764E-2
4.342060007E0,-4.007685184E-2,4.404067993E-2,7.651662827E-2,9.695633009E-2
4.350070085E0,-8.382336795E-2,7.637882233E-2,7.712554932E-2,1.371438364E-1
4.358079928E0,-5.770400167E-3,-5.014705658E-2,1.747183800E-1,1.818640622E-1
4.366090866E0,3.866261244E-2,-1.178283691E-1,1.037845612E-1,1.617082475E-1
4.374102116E0,4.760199785E-2,-1.187448502E-1,1.505789757E-1,1.975862282E-1
4.382114421E0,5.475246906E-2,-7.400655746E-2,1.277251244E-1,1.574436750E-1
4.390123600E0,7.261662185E-2,-2.686405182E-2,1.049032211E-1,1.303822720E-1
4.398132936E0,6.459726393E-2,3.303527832E-3,8.190631866E-3,6.519820744E-2
4.406142468E0,8.072510362E-2,4.055500031E-2,1.458072662E-2,9.150873178E-2
4.414154616E0,3.005407751E-2,1.796245575E-2,2.096891403E-2,4.081167415E-2
4.422164499E0,-3.745332360E-3,2.876853943E-2,1.077365875E-2,3.094718240E-2
4.430172897E0,-3.863134980E-2,4.668807983E-2,5.810022354E-2,8.395114032E-2
4.438181882E0,-4.670067132E-2,6.219482422E-2,7.913923264E-2,1.109602046E-1
4.446189889E0,-6.670418382E-2,9.184932709E-2,2.627420425E-2,1.165164402E-1
4.454200085E0,-3.372107446E-2,2.317237854E-2,7.422924042E-2,8.475877608E-2
4.462211218E0,-2.690027654E-2,-1.431941986E-2,7.422256470E-2,8.023502834E-2
4.470223014E0,-5.816724896E-2,-3.988265991E-3,-2.300739288E-3,5.834919467E-2
4.478230007E0,-6.977817416E-2,2.800750732E-2,-3.347921371E-2,8.230596459E-2
4.486236725E0,-8.417935669E-2,7.241344452E-2,8.906841278E-3,1.113966017E-1
4.494247858E0,-6.566138566E-2,9.083938599E-2,4.595804214E-2,1.211418724E-1
4.502257624E0,-4.760520160E-2,1.190862656E-1,4.432630539E-2,1.356930920E-1
4.510265163E0,-1.816082001E-2,1.281156540E-1,2.839803696E-2,1.324759778E-1
4.518272975E0,-1.284494996E-3,1.610879898E-1,4.117345810E-2,1.662715972E-1
4.526282155E0,1.297785342E-2,1.678571701E-1,9.205245972E-2,1.918804565E-1
4.534293522E0,2.713935077E-2,1.676826477E-1,1.569409370E-1,2.312671019E-1
4.542302272E0,3.445318341E-2,1.580820084E-1,1.904997826E-1,2.499342121E-1
4.550313757E0,3.214198351E-2,1.387290955E-1,1.716413498E-1,2.230238148E-1
4.558323522E0,2.736088634E-2,1.458196640E-1,1.214990616E-1,1.917655195E-1
4.566332428E0,2.988134325E-2,1.577396393E-1,3.299236298E-2,1.638999222E-1
4.574344538E0,3.318096697E-2,1.793498993E-1,3.054809570E-2,1.849339047E-1
4.582358757E0,3.007394075E-2,1.386508942E-1,8.089685440E-2,1.633181356E-1
4.590372741E0,7.508173585E-3,1.149587631E-1,1.284770966E-1,1.725637686E-1
4.598386725E0,-2.559211850E-2,1.109037399E-1,1.992497444E-1,2.294668968E-1
4.606399225E0,-4.382279515E-2,9.002017975E-2,2.007145882E-1,2.242998351E-1
4.614413444E0,-1.922932267E-2,9.009838104E-2,2.269654274E-1,2.449505876E-1
4.622428288E0,1.258856058E-2,1.302280426E-1,1.033339500E-1,1.667204852E-1
4.630444968E0,1.535682231E-1,-1.448440552E-2,1.628589630E-2,1.551071487E-1
4.638457663E0,2.276394367E-1,-9.181213379E-2,5.621910095E-4,2.454577298E-1
4.646467819E0,1.032730341E-1,-1.132578850E-1,4.590988159E-2,1.600012041E-1
4.654481335E0,-8.545272052E-2,-1.126294136E-1,9.049844742E-2,1.678616134E-1
4.662493249E0,-1.562386155E-1,-7.134246826E-2,1.160268784E-1,2.072739474E-1
4.670505632E0,-1.625459194E-1,-2.077388763E-2,8.212280273E-2,1.832945309E-1
4.678519460E0,-1.072071791E-1,2.445697784E-2,2.026367188E-2,1.118129662E-1
4.686529343E0,-8.785656095E-2,6.700801849E-2,-4.792213440E-4,1.104947035E-1
4.694541218E0,-9.255874157E-2,1.115922928E-1,-2.309226990E-2,1.468101270E-1
4.702555553E0,-5.900952220E-2,1.227712631E-1,2.595186234E-2,1.386665277E-1
4.710567507E0,-4.721212387E-2,1.557130814E-1,4.534721375E-4,1.627137179E-1
4.718577507E0,4.969328642E-3,1.384420395E-1,5.145883560E-2,1.477799184E-1
4.726589382E0,7.016003132E-3,1.189107895E-1,1.608228683E-2,1.201983365E-1
4.734599460E0,2.560819685E-2,1.162118912E-1,5.480813980E-2,1.310149441E-1
4.742610280E0,2.513442934E-2,1.160440445E-1,5.024528503E-2,1.289284626E-1
4.750624733E0,1.271247864E-2,8.729934692E-2,7.151126862E-3,8.850944414E-2
4.758638053E0,-2.210661769E-3,1.446218491E-1,4.563331604E-2,1.516666271E-1
4.766651764E0,2.146919072E-2,1.754064560E-1,5.569887161E-2,1.852854966E-1
4.774665866E0,-2.709814906E-2,1.389589310E-1,1.381874084E-3,1.415832044E-1
4.782680749E0,-7.084637880E-2,3.526592255E-2,3.596067429E-2,8.692562785E-2
4.790690280E0,-8.605477214E-2,3.232574463E-2,-1.585483551E-3,9.193960698E-2
4.798701999E0,-1.105919480E-3,-7.570075989E-2,1.759552956E-1,1.915518054E-1
4.806711061E0,3.717179596E-2,-9.622478485E-2,1.730675697E-1,2.014778780E-1
4.814723991E0,3.014291823E-2,-9.344291687E-2,1.557464600E-1,1.841117433E-1
4.822734499E0,-1.805910468E-2,-1.541805267E-2,4.464673996E-2,5.056855742E-2
4.830746803E0,1.801262796E-2,2.144908905E-2,7.310485840E-2,7.828689870E-2
4.838760710E0,-3.931786120E-2,6.024074554E-2,-9.168100357E-2,1.165343213E-1
4.846773874E0,-1.103577018E-2,6.084156036E-2,1.264128685E-1,1.407256089E-1
4.854787116E0,-7.098549604E-2,1.095838547E-1,1.909165382E-1,2.312935071E-1
4.862797936E0,-8.082565665E-2,2.348012924E-1,2.149176598E-1,3.284113795E-1
4.870811569E0,-8.349604905E-2,2.950878143E-1,1.842775345E-1,3.577801253E-1
4.878828093E0,5.396716297E-2,1.967420578E-1,8.447170258E-3,2.041843448E-1
4.886839616E0,7.125058770E-2,1.008653641E-1,-5.019044876E-2,1.333024721E-1
4.894854616E0,-6.676122546E-3,3.905010223E-2,-9.284114838E-2,1.009403781E-1
4.902868405E0,-2.308422327E-2,4.446029663E-3,-3.626012802E-2,4.321394946E-2
4.910883678E0,6.090076268E-2,-8.705711365E-2,8.652257919E-2,1.370182493E-1
4.918900241E0,1.300765574E-2,-8.035659790E-2,7.276821136E-2,1.091860546E-1
4.926914616E0,-5.872100592E-3,-1.122903824E-1,7.387638092E-2,1.345411877E-1
4.934930280E0,-3.436639905E-2,-8.768463135E-2,9.308815002E-3,9.463771973E-2
4.942944577E0,-4.954114556E-3,-1.117610931E-1,-3.969144821E-2,1.187033961E-1
4.950962468E0,-3.539541364E-2,-1.027526855E-1,-6.170797348E-2,1.249752923E-1
4.958977233E0,-3.162817657E-2,-6.744766235E-2,-3.814172745E-2,8.369181610E-2
4.966992819E0,-6.363834441E-2,8.753776550E-3,-2.922153473E-2,7.057170520E-2
4.975006921E0,-5.470423400E-2,7.305812836E-2,1.791429520E-2,9.301056558E-2
4.983020319E0,-2.192629874E-2,9.681987762E-2,2.171611786E-2,1.016190979E-1
4.991033757E0,-5.344867706E-3,1.157999039E-1,1.595735550E-2,1.170163345E-1
4.999048796E0,3.981173038E-3,1.059703827E-1,1.989459991E-2,1.078951660E-1
5.007061882E0,8.365094662E-3,1.010837555E-1,5.472326279E-2,1.152498847E-1
5.015077272E0,1.485534012E-2,1.202383041E-1,3.911733627E-2,1.273110243E-1
5.023091218E0,2.305954695E-4,1.467905045E-1,-1.988315582E-2,1.481311758E-1
5.031102624E0,-2.291442454E-2,1.516342163E-1,-4.986858368E-2,1.612602928E-1
5.039113210E0,-5.067735910E-4,1.370162964E-1,-4.826116562E-2,1.452682429E-1
5.047124889E0,1.264616847E-3,1.560583115E-1,-1.819038391E-2,1.571199729E-1
5.055139108E0,4.550501704E-3,1.686611176E-1,-8.025026321E-2,1.868351797E-1
5.063154460E0,-4.662527144E-2,1.309814453E-1,-1.350917816E-1,1.938552151E-1
5.071168913E0,-6.830078363E-2,6.707382202E-2,-4.162216187E-2,1.043853390E-1
5.079184030E0,-7.664895058E-2,1.280689240E-2,1.043820381E-1,1.301333470E-1
5.087193053E0,-2.362081409E-2,-1.550388336E-2,1.886768341E-1,1.907806620E-1
5.095204538E0,-9.020927548E-2,4.630851746E-2,1.018853188E-1,1.437456446E-1
5.103211374E0,-6.483399868E-2,5.701160431E-2,1.639366150E-2,8.787788429E-2
5.111220202E0,-2.230417728E-2,9.386634827E-2,-7.597732544E-2,1.228044040E-1
5.119230436E0,1.325315237E-2,9.279823303E-2,-3.723287582E-2,1.008634976E-1
5.127238132E0,1.569849253E-2,1.259479523E-1,7.230043411E-2,1.460708120E-1
5.135249968E0,-5.328208208E-3,1.116313934E-1,9.503126144E-2,1.467000288E-1
5.143258678E0,-4.724074900E-2,1.641836166E-1,6.059026718E-2,1.812708714E-1
5.151268210E0,-3.883241117E-2,1.711673737E-1,6.457948685E-2,1.870206836E-1
5.159277077E0,-2.820113301E-2,1.851959229E-1,4.962301254E-2,1.937918397E-1
5.167283171E0,-7.044336200E-2,2.375621796E-1,2.503776550E-2,2.490480799E-1
5.175293053E0,-7.931962609E-3,2.015419006E-1,8.871889114E-2,2.203476694E-1
5.183306374E0,4.996727407E-2,1.824111938E-1,6.164550781E-3,1.892315349E-1
5.191316803E0,6.490063667E-2,1.324405670E-1,2.192020416E-3,1.475039030E-1
5.199327350E0,6.581950188E-2,7.091045380E-2,2.633810043E-2,1.002706080E-1
5.207335983E0,8.100391924E-2,1.436424255E-2,8.848857880E-2,1.208229903E-1
5.215343249E0,6.338584423E-2,-1.412391663E-3,1.266250610E-1,1.416109677E-1
5.223353600E0,-1.390577853E-2,-1.977920532E-2,1.004271507E-1,1.032966613E-1
5.231362038E0,2.371259034E-2,-5.042648315E-2,3.639936447E-2,6.655847713E-2
5.239377428E0,-3.244388103E-2,-7.176113129E-2,-1.047801971E-2,7.944843785E-2
5.247391139E0,-1.217529178E-2,-5.965518951E-2,-2.372312546E-2,6.534344686E-2
5.255406296E0,2.800732851E-3,-4.256725311E-2,-8.549690247E-3,4.350761250E-2
5.263424733E0,1.779313385E-2,-1.569557190E-2,2.785253525E-2,3.658839036E-2
5.271439225E0,-2.443856001E-2,5.923175812E-2,8.555412292E-2,1.068885042E-1
5.279453444E0,-7.101590931E-2,1.150522232E-1,8.813762665E-2,1.613955225E-1
5.287468678E0,-8.675064147E-2,1.707191467E-1,-7.217407227E-3,1.916319175E-1
5.295482350E0,-7.113018632E-2,2.024765015E-1,-8.824205399E-2,2.320407230E-1
5.303496647E0,-5.571457744E-2,2.271518707E-1,-9.999656677E-2,2.543646986E-1
5.311509264E0,-1.023117900E-1,2.278776169E-1,-5.427026749E-2,2.556191945E-1
5.319520866E0,-4.188567400E-2,1.952476501E-1,-4.032135010E-3,1.997306003E-1
5.327528796E0,-1.839138567E-2,1.849260330E-1,1.386022568E-2,1.863544650E-1
5.335536178E0,-1.200374961E-2,1.653747559E-1,5.035305023E-2,1.732868418E-1
5.343545202E0,4.056289792E-3,1.552152634E-1,4.403924942E-2,1.613929582E-1
5.351555749E0,5.358895659E-2,1.277427673E-1,-2.605915070E-2,1.409576894E-1
5.359566100E0,1.008689106E-1,1.213979721E-1,-7.634830475E-2,1.753313103E-1
5.367578874E0,8.779869974E-2,1.341056824E-1,-4.988431931E-2,1.678731397E-1
5.375590046E0,1.612818539E-1,2.039813995E-2,4.528760910E-2,1.687568904E-1
5.383602546E0,1.625885665E-1,-3.292274475E-2,5.103349686E-2,1.735608449E-1
5.391612389E0,5.205255747E-2,-9.257316589E-3,6.580972672E-2,8.441615236E-2
5.399620749E0,-7.574528456E-3,1.231193542E-2,8.254814148E-2,8.380425345E-2
5.407630241E0,-2.369241416E-2,4.343032837E-2,8.019065857E-2,9.422348769E-2
5.415638796E0,-1.091946661E-2,7.914638519E-2,6.377124786E-2,1.022260099E-1
5.423647350E0,1.604162157E-2,1.027193069E-1,2.367019653E-2,1.066248932E-1
5.431654382E0,5.712737143E-2,1.357984543E-1,-3.309297562E-2,1.509963635E-1
5.439663210E0,9.344372153E-2,1.307430267E-1,-2.787208557E-2,1.631021805E-1
5.447672233E0,1.057780087E-1,1.163587570E-1,-1.585483551E-2,1.580497493E-1
5.455682116E0,9.186375141E-2,8.781051636E-2,2.937126160E-2,1.304312333E-1
5.463691921E0,8.065086603E-2,5.461502075E-2,2.650833130E-2,1.009457989E-1
5.471699889E0,4.814560711E-2,4.790782928E-2,1.384210587E-2,6.931640128E-2
5.479707233E0,3.941781819E-2,1.726055145E-2,1.074457169E-2,4.435241648E-2
5.487714499E0,2.401800454E-2,9.841918945E-4,1.244974136E-2,2.707081889E-2
5.495720514E0,4.115909338E-3,1.095581055E-2,1.430511475E-2,1.848260810E-2
5.503729694E0,5.878835917E-3,1.369571686E-2,6.667137146E-3,1.632740303E-2
5.511737233E0,-1.767009497E-3,4.043674469E-2,-3.218269348E-2,5.171052507E-2
5.519744577E0,6.675541401E-3,5.519199371E-2,-5.667352676E-2,7.938896434E-2
5.527754030E0,5.778297782E-3,6.537628174E-2,-4.557371140E-2,7.990250378E-2
5.535763835E0,-9.294182062E-3,6.858062744E-2,-3.238725662E-2,7.641085441E-2
5.543772975E0,-1.988837123E-2,5.986690521E-2,-6.239032745E-2,8.872511826E-2
5.551781882E0,-5.198563635E-2,4.409599304E-2,-5.667400360E-2,8.865046911E-2
5.559790046E0,-9.347088635E-2,2.602958679E-2,-6.546401978E-2,1.170465030E-1
5.567798249E0,-1.186246276E-1,-1.404762268E-3,-5.544281006E-2,1.309491535E-1
5.575805514E0,-1.440668106E-1,-4.078674316E-2,-5.504655838E-2,1.595272012E-1
5.583817428E0,-1.722092032E-1,-8.012580872E-2,-5.233716965E-2,1.970160761E-1
5.591830827E0,-1.975958943E-1,-9.573173523E-2,-5.407285690E-2,2.261251345E-1
5.599843405E0,-2.258806229E-1,-1.116447449E-1,-5.057144165E-2,2.569904192E-1
5.607853913E0,-1.936839819E-1,-9.427356720E-2,-6.104040146E-2,2.238904217E-1
5.615866843E0,-1.571916640E-1,-7.474040985E-2,-5.920553207E-2,1.838495122E-1
5.623880241E0,-1.092515290E-1,-7.459640503E-3,-1.648092270E-2,1.107391694E-1
5.631894616E0,-6.879588962E-2,2.390575409E-2,1.425886154E-2,7.421370924E-2
5.639909850E0,-6.660684943E-2,7.901191711E-2,-1.754760742E-4,1.033411159E-1
5.647922936E0,-7.842618227E-2,1.529874802E-1,2.604484558E-3,1.719378332E-1
5.655938210E0,-1.002691984E-1,1.980781555E-1,3.193426132E-2,2.242959315E-1
5.663952468E0,-9.110093117E-2,2.266349792E-1,4.654884338E-2,2.486555616E-1
5.671967936E0,-6.781885028E-2,2.673473358E-1,-1.382827759E-3,2.758186118E-1
5.679982428E0,-7.767742872E-2,2.723398209E-1,6.828308105E-4,2.832017430E-1
5.687996491E0,-4.850977659E-2,2.340345383E-1,2.464342117E-2,2.402762197E-1
5.696009303E0,-1.291033626E-2,2.075653076E-1,6.792783737E-2,2.187789405E-1
5.704021257E0,3.573036194E-2,1.713294983E-1,-8.727264404E-2,1.955683260E-1
5.712033327E0,6.435234845E-2,8.537006378E-2,-8.056688309E-2,1.338667068E-1
5.720042858E0,2.662087977E-2,9.663581848E-3,-4.374456406E-2,5.211183108E-2
5.728053132E0,-1.542255282E-3,-6.310844421E-2,3.773450851E-2,7.354554654E-2
5.736062819E0,2.928161621E-2,-1.191320419E-1,1.479244232E-1,1.921756786E-1
5.744075749E0,7.467120886E-2,-1.778898239E-1,1.724562645E-1,2.587696699E-1
5.752088327E0,9.909808636E-2,-1.776666641E-1,1.025962830E-1,2.278417686E-1
5.760103952E0,9.531594813E-2,-1.565771103E-1,2.183675766E-2,1.846032649E-1
5.768120593E0,8.551760018E-2,-9.740161896E-2,-6.092214584E-2,1.432195628E-1
5.776132389E0,6.182430685E-2,-1.873779297E-2,-7.235097885E-2,9.699491710E-2
5.784142663E0,4.328677058E-2,3.403759003E-2,-6.769466400E-2,8.726322007E-2
5.792153327E0,3.437662125E-2,7.739162445E-2,-4.651498795E-2,9.661707782E-2
5.800166999E0,2.773322165E-2,9.691143036E-2,-3.958225250E-3,1.008792569E-1
5.808181921E0,3.315554559E-2,1.068782806E-1,5.532455444E-2,1.248321409E-1
5.816197663E0,3.345482051E-2,1.047735214E-1,9.559154510E-2,1.457204835E-1
5.824211022E0,3.303894401E-2,8.588027954E-2,7.841348648E-2,1.208952815E-1
5.832223093E0,6.172552705E-3,5.971050262E-2,7.334470749E-2,9.477811270E-2
5.840232311E0,1.957593858E-2,3.589820862E-2,3.000640869E-2,5.071768248E-2
5.848245046E0,2.343231440E-2,7.392883301E-3,-2.065944672E-2,3.210203763E-2
5.856256725E0,1.303863525E-2,-1.135635376E-2,-6.953239441E-3,1.863653183E-2
5.864268835E0,3.356646001E-2,-2.031326294E-2,5.669164658E-2,6.894402571E-2
5.872282858E0,2.502863109E-2,-5.315971375E-2,7.954072952E-2,9.888940890E-2
5.880297311E0,7.510229945E-3,-5.505943298E-2,7.635116577E-2,9.443222559E-2
5.888311647E0,9.125262499E-3,-5.479240417E-2,2.323484421E-2,6.021076279E-2
5.896324577E0,-1.337677240E-3,-3.778934479E-2,2.042865753E-2,4.297852962E-2
5.904337936E0,1.183949411E-2,-2.795886993E-2,7.026433945E-2,7.654377458E-2
5.912349030E0,2.714139223E-2,3.501892090E-3,1.223568916E-1,1.253799320E-1
5.920360202E0,3.022328019E-2,1.600646973E-2,1.525902748E-1,1.563759755E-1
5.928367702E0,4.263444245E-2,3.092575073E-2,1.660223007E-1,1.741766404E-1
5.936378366E0,4.781214893E-2,5.291652679E-2,1.030063629E-1,1.252855586E-1
5.944389186E0,4.626519978E-2,8.662891388E-2,2.363681793E-2,1.010135466E-1
5.952401843E0,2.854806185E-2,8.668136597E-2,-1.239633560E-2,9.209951236E-2
5.960414928E0,-1.729950309E-2,7.190227509E-2,-2.135133743E-2,7.697460347E-2
5.968426374E0,-3.506837785E-2,5.000495911E-2,2.702951431E-2,6.678983234E-2
5.976437702E0,-4.009994864E-2,5.063343048E-2,6.665754318E-2,9.281690701E-2
5.984450866E0,-1.615794003E-2,4.345035553E-2,1.552429199E-1,1.620165936E-1
5.992463991E0,4.369710386E-2,5.063343048E-2,1.743965149E-1,1.867814915E-1
6.000478678E0,9.274462610E-2,4.232215881E-2,1.481785774E-1,1.798600056E-1
6.008489694E0,9.746493399E-2,5.612564087E-2,1.154279709E-1,1.611617740E-1
6.016502077E0,1.264072508E-1,9.324550629E-2,3.337049484E-2,1.605836462E-1
6.024513991E0,6.699058414E-2,1.036481857E-1,-4.090881348E-2,1.300162136E-1
6.032525866E0,7.252310216E-2,1.194372177E-1,-8.496809006E-2,1.635372302E-1
6.040538835E0,2.558335662E-2,1.477508545E-1,-7.480478287E-2,1.675726072E-1
6.048549928E0,-2.086304128E-2,1.745738983E-1,-3.009796143E-2,1.783737642E-1
6.056559694E0,-1.008152962E-2,2.042989731E-1,-7.728099823E-3,2.046935054E-1
6.064567663E0,1.043196023E-2,2.102584839E-1,-1.196002960E-2,2.108565819E-1
6.072579303E0,4.746843874E-2,2.114887238E-1,-2.347326279E-2,2.180177218E-1
6.080591335E0,9.923428297E-2,1.935625076E-1,-1.581382751E-2,2.180916422E-1
6.088606178E0,1.316097826E-1,1.685752869E-1,-1.313543320E-2,2.142692274E-1
6.096617741E0,1.397837400E-1,1.509552002E-1,-1.074934006E-2,2.060158119E-1
6.104627350E0,1.317415833E-1,1.238212585E-1,-1.322555542E-2,1.812800711E-1
6.112638014E0,1.211336926E-1,1.135292053E-1,8.109569550E-3,1.662167773E-1
6.120650046E0,1.064244881E-1,9.375476837E-2,7.776737213E-3,1.420443801E-1
6.128661218E0,7.986555994E-2,8.116340637E-2,7.451057434E-3,1.141118944E-1
6.136672233E0,5.127163231E-2,1.044244766E-1,-1.671266556E-2,1.175268684E-1
6.144684147E0,3.741757572E-2,6.295394897E-2,1.913261414E-2,7.569234828E-2
6.152698913E0,5.950784683E-2,4.553699493E-2,2.847099304E-2,8.015858773E-2
6.160713366E0,4.574322701E-2,4.257869720E-2,3.288269043E-2,7.061628426E-2
6.168726022E0,7.446855307E-4,4.457378387E-2,2.746772766E-2,5.236270455E-2
6.176739343E0,-6.127834320E-3,4.897499084E-2,5.554819107E-2,7.430815307E-2
6.184749694E0,-1.079523563E-2,4.388046265E-2,1.002583504E-1,1.099716733E-1
6.192763835E0,-2.023088932E-2,3.635978699E-2,1.186857224E-1,1.257681346E-1
6.200776100E0,-3.455117345E-3,3.827285767E-2,1.349353790E-1,1.403007697E-1
6.208792428E0,-1.040302217E-2,3.277397156E-2,1.611199379E-1,1.647482639E-1
6.216807819E0,-2.218085527E-2,5.110359192E-2,1.300148964E-1,1.414476608E-1
6.224823796E0,-2.431406081E-2,5.253028870E-2,1.230716705E-1,1.360045619E-1
6.232839928E0,-5.274958909E-2,6.112194061E-2,1.640434265E-1,1.828350529E-1
6.240857038E0,-5.513706803E-2,5.058670044E-2,1.546854973E-1,1.718333891E-1
6.248865749E0,-6.006722152E-2,7.369422913E-2,1.499285698E-1,1.775316494E-1
6.256877663E0,-4.900807142E-2,6.324100494E-2,1.452054977E-1,1.657885772E-1
6.264890827E0,-6.942072511E-2,5.046176910E-2,1.260066032E-1,1.524575065E-1
6.272904577E0,-5.831862986E-2,5.193328857E-2,9.981155396E-2,1.267299308E-1
6.280917663E0,-7.118335366E-2,6.763076782E-2,6.664466858E-2,1.186697200E-1
6.288927702E0,-5.276304483E-2,8.308029175E-2,4.104042053E-2,1.066329681E-1
6.296940046E0,-2.215835452E-2,5.759429932E-2,5.889511108E-2,8.530375196E-2
6.304951803E0,1.119330525E-2,4.158401489E-2,4.818344116E-2,6.462324953E-2
6.312966413E0,1.160977781E-2,4.965686798E-2,4.206800461E-2,6.610830878E-2
6.320979577E0,1.095980406E-4,6.030082703E-2,7.638883591E-2,9.732140568E-2
6.328992468E0,-2.754734457E-2,7.816505432E-2,3.884744644E-2,9.153008251E-2
6.337004616E0,-5.246931314E-2,9.847164154E-2,5.392217636E-2,1.239245501E-1
6.345015788E0,-5.614858866E-2,9.249401093E-2,8.327245712E-2,1.365361058E-1
6.353027897E0,-3.354951739E-2,6.037521362E-2,1.410589218E-1,1.570616311E-1
6.361043053E0,-2.825899422E-2,5.242156982E-2,1.386389732E-1,1.508885570E-1
6.369059616E0,-1.235532761E-2,3.707313538E-2,1.389641762E-1,1.443541262E-1
6.377071022E0,-7.782325149E-3,1.864719391E-2,1.379508972E-1,1.394228549E-1
6.385083483E0,1.135638356E-2,1.829719543E-2,3.800773621E-2,4.368458332E-2
6.393098405E0,3.855390847E-2,4.184055328E-2,-7.867908478E-2,9.709497484E-2
6.401113483E0,2.634470165E-2,1.020994186E-1,-8.408212662E-2,1.348634072E-1
6.409125944E0,-2.025663853E-3,3.617191315E-2,-2.109193802E-2,4.192112193E-2
6.417143249E0,-1.959308982E-3,1.370620728E-2,5.331087112E-2,5.507946976E-2
6.425159850E0,-2.629734576E-2,-2.565383911E-2,2.045140266E-1,2.077875284E-1
6.433176022E0,1.185557246E-2,-4.881286621E-2,2.871294022E-1,2.914902127E-1
6.441188249E0,1.634527743E-2,-8.498668671E-2,2.228684425E-1,2.390820940E-1
6.449202897E0,7.892973721E-2,-5.732250214E-2,7.124948502E-2,1.207984345E-1
6.457219147E0,1.177530959E-1,-2.033519745E-2,4.930543900E-2,1.292684732E-1
6.465233913E0,1.426774114E-1,-2.158164978E-3,5.320215225E-2,1.522891014E-1
6.473248913E0,1.321110129E-1,4.232406616E-3,7.359457016E-2,1.512858016E-1
6.481262624E0,8.136895299E-2,3.455162048E-2,7.008981705E-2,1.128153511E-1
6.489279577E0,5.211538076E-2,6.465053558E-2,3.099775314E-2,8.863726848E-2
6.497295553E0,4.465658963E-2,9.701728821E-2,2.802085876E-2,1.104161842E-1
6.505309069E0,2.039836347E-2,1.173753738E-1,4.186344147E-2,1.262759650E-1
6.513324382E0,2.237345278E-2,1.114845276E-1,5.556678772E-2,1.265584418E-1
6.521338483E0,2.210663259E-2,1.104364395E-1,5.722808838E-2,1.263327530E-1
6.529352428E0,2.439473569E-2,9.514141083E-2,6.829404831E-2,1.196288770E-1
6.537367546E0,2.184884250E-2,9.920310974E-2,3.117227554E-2,1.062560100E-1
6.545383249E0,-2.177938819E-3,6.747722626E-2,-8.529186249E-3,6.804900072E-2
6.553399811E0,-2.377454937E-2,6.474685669E-2,-5.534172058E-3,6.919546018E-2
6.561414264E0,-4.519027472E-2,6.943893433E-2,1.147603989E-2,8.363985904E-2
6.569428171E0,-4.818682373E-2,6.951999664E-2,4.247188568E-3,8.469379272E-2
6.577443522E0,-6.791590154E-2,6.972789764E-2,-7.805824280E-4,9.734042686E-2
6.585460280E0,-7.810030878E-2,6.541347504E-2,-6.208419800E-3,1.020643200E-1
6.593477780E0,-7.910919189E-2,4.439830780E-2,4.811525345E-2,1.026866671E-1
6.601493718E0,-6.842677295E-2,5.701541901E-2,8.789157867E-2,1.251315742E-1
6.609513483E0,-3.874006867E-2,4.100894928E-2,1.322898865E-1,1.438163444E-1
6.617530085E0,-4.712852836E-2,4.654884338E-2,1.407852173E-1,1.555903931E-1
6.625543678E0,3.688633442E-3,6.403636932E-2,1.253495216E-1,1.408075466E-1
6.633557350E0,2.833089232E-2,5.263233185E-2,5.748891830E-2,8.293236728E-2
6.641570749E0,3.680500388E-2,8.189105988E-2,-1.268053055E-2,9.067276247E-2
6.649585241E0,1.513648033E-2,9.906005859E-2,2.271699905E-2,1.027524710E-1
6.657601139E0,-8.448377252E-3,1.039056778E-1,3.472471237E-2,1.098798007E-1
6.665616022E0,-4.236789048E-2,1.211433411E-1,3.648948669E-2,1.334249972E-1
6.673630046E0,-5.767828226E-2,1.171731949E-1,1.310930252E-1,1.850451921E-1
6.681642233E0,-7.532151043E-2,1.229782104E-1,2.134289742E-1,2.575827968E-1
6.689657389E0,-3.779342771E-2,7.312583923E-2,2.056813240E-1,2.215412796E-1
6.697669733E0,4.006165266E-2,6.779956818E-2,8.444213867E-2,1.154651127E-1
6.705679108E0,1.009367108E-1,7.019996643E-3,-2.705097198E-3,1.012166859E-1
6.713689303E0,9.539338946E-2,-3.187465668E-2,1.022338867E-2,1.010960443E-1
6.721701061E0,7.310497761E-2,-2.708053589E-2,5.817604065E-2,9.727355694E-2
6.729712507E0,-2.809327841E-2,-9.734153748E-3,1.268105507E-1,1.302493831E-1
6.737724499E0,-6.684651971E-2,-4.307746887E-3,1.307320595E-1,1.468941294E-1
6.745736608E0,-1.090218127E-1,3.680801392E-2,1.181831360E-1,1.649479893E-1
6.753750866E0,-8.167290688E-2,5.360984802E-2,4.873514175E-2,1.091768912E-1
6.761766335E0,-5.952623487E-2,7.508468628E-2,4.647874832E-2,1.064958065E-1
6.769780710E0,-3.311726451E-2,1.013746262E-1,3.697490692E-2,1.128747615E-1
6.777794538E0,-1.637887955E-2,1.183586121E-1,6.536579132E-2,1.361973400E-1
6.785809655E0,-9.200096130E-3,1.165914536E-1,9.315729141E-2,1.495208673E-1
6.793825788E0,7.317066193E-3,1.055030823E-1,1.181540489E-1,1.585711799E-1
6.801842663E0,1.413989067E-2,8.005237579E-2,1.215953827E-1,1.462660469E-1
6.809858757E0,2.043217421E-3,5.934619904E-2,9.638404846E-2,1.132079100E-1
6.817876178E0,9.174078703E-3,4.803657532E-2,7.623767853E-2,9.057516169E-2
6.825891218E0,4.260301590E-3,3.181076050E-2,4.670095444E-2,5.666616096E-2
6.833906452E0,-1.236850023E-2,2.975845337E-2,4.619359970E-2,5.632400907E-2
6.841918132E0,-1.678806543E-2,1.791954041E-2,6.756019592E-2,7.188413693E-2
6.849929733E0,-9.816467762E-3,6.075859070E-3,5.778360367E-2,5.892557981E-2
6.857944030E0,1.194179058E-2,3.490066528E-2,6.243991852E-2,7.252176380E-2
6.865960553E0,1.671877503E-2,5.424022675E-2,6.216096878E-2,8.417544580E-2
6.873977194E0,1.897826791E-2,6.626892090E-2,6.206750870E-2,9.275839674E-2
6.881991647E0,1.179683208E-2,6.872940063E-2,8.112144470E-2,1.069746912E-1
6.890004889E0,-4.611909389E-4,8.558368683E-2,7.378244400E-2,1.129983592E-1
6.898021413E0,2.548813820E-3,7.369518280E-2,6.890106201E-2,1.009199325E-1
6.906036413E0,-1.587504148E-2,7.128715515E-2,8.810901642E-2,1.144424493E-1
6.914050436E0,-8.171617985E-3,6.882381439E-2,8.345079422E-2,1.084782366E-1
6.922061218E0,-1.703268290E-2,7.114696503E-2,7.162094116E-2,1.023795005E-1
6.930074303E0,-2.385842800E-2,8.549880981E-2,1.027822495E-1,1.358067077E-1
6.938088718E0,-3.773090243E-2,6.398677826E-2,1.219067574E-1,1.427556874E-1
6.946105671E0,-5.228373408E-2,8.557510376E-2,1.122584343E-1,1.505278821E-1
6.954123483E0,-6.219139695E-2,1.000413895E-1,1.264576912E-1,1.728224439E-1
6.962139069E0,-4.598346353E-2,1.049537659E-1,1.310319901E-1,1.740665226E-1
6.970156647E0,-3.003391623E-2,1.098709106E-1,9.728193283E-2,1.497912801E-1
6.978167155E0,-9.821712971E-3,1.124496460E-1,8.257770538E-2,1.398587371E-1
6.986174538E0,-9.622126818E-3,1.108226776E-1,7.653236389E-2,1.350239013E-1
6.994181608E0,-1.906007528E-2,1.133069992E-1,8.358764648E-2,1.420867945E-1
7.002187272E0,-1.567864418E-2,1.042795181E-1,9.466886520E-2,1.417117914E-1
7.010193913E0,-1.934710145E-2,8.078289032E-2,7.239389420E-2,1.101864856E-1
7.018201960E0,-6.268143654E-3,5.243206024E-2,4.782199860E-2,7.124151961E-2
7.026210788E0,-2.155834436E-2,3.110313416E-2,4.026889801E-2,5.526075744E-2
7.034222858E0,-1.280221343E-2,2.641201019E-2,7.120847702E-2,7.702037491E-2
7.042233483E0,-3.233572841E-2,3.373146057E-2,1.236600876E-1,1.321939031E-1
7.050239889E0,-3.504177928E-2,3.865337372E-2,1.569657326E-1,1.654093431E-1
7.058247194E0,-2.153730392E-2,3.393745422E-2,1.376638412E-1,1.434117828E-1
7.066253327E0,-1.321548223E-2,5.786800385E-2,1.041045189E-1,1.198378308E-1
7.074263327E0,-1.171939075E-2,7.694911957E-2,7.544040680E-2,1.083963380E-1
7.082271882E0,-1.486527920E-2,8.407592773E-2,9.943056107E-2,1.310579056E-1
7.090280710E0,-1.595687866E-2,8.909034729E-2,1.756567955E-1,1.976031927E-1
7.098288952E0,-8.197039366E-3,8.716869354E-2,1.269850731E-1,1.542426056E-1
7.106297741E0,-9.594038129E-3,7.797908783E-2,9.521722794E-2,1.234467667E-1
7.114305553E0,-4.869654775E-3,5.615901947E-2,3.337144852E-2,6.550727121E-2
7.122313796E0,1.874181628E-2,5.028152466E-2,1.470565796E-3,5.368100188E-2
7.130322663E0,3.646920621E-2,8.269691467E-2,-3.285408020E-2,9.616742320E-2
7.138330475E0,2.246113122E-2,1.183099747E-1,-8.277416229E-2,1.461277334E-1
7.146335866E0,-1.243744791E-2,7.785129547E-2,-1.143231392E-1,1.388715035E-1
7.154341335E0,-4.028846323E-2,1.821517944E-2,-2.613162994E-2,5.135966429E-2
7.162349343E0,-3.805267811E-2,-2.465248108E-2,1.050982475E-1,1.144613156E-1
7.170355202E0,3.159049153E-2,-7.994842529E-2,2.681517601E-1,2.815938144E-1
7.178361647E0,8.712299168E-2,-1.023311615E-1,2.142539024E-1,2.529166207E-1
7.186369382E0,1.290448904E-1,-9.001827240E-2,5.687046051E-2,1.673024877E-1
7.194379147E0,1.212508827E-1,-4.686927795E-2,-2.104806900E-2,1.316872317E-1
7.202387858E0,8.097527921E-2,3.704547882E-2,-5.113172531E-2,1.026830886E-1
7.210395553E0,3.862521052E-2,9.468460083E-2,-2.622270584E-2,1.055685125E-1
7.218404616E0,1.120616496E-2,1.309375763E-1,-8.712768555E-3,1.317047431E-1
7.226413288E0,-3.725597262E-2,1.551923752E-1,1.365184784E-2,1.601844367E-1
7.234423639E0,-3.815847635E-2,1.745986938E-1,1.215553284E-2,1.791327167E-1
7.242434069E0,-4.841272533E-2,1.652708054E-1,2.025413513E-2,1.734025982E-1
7.250441061E0,-4.152764380E-2,1.584539413E-1,4.255819321E-2,1.692436012E-1
7.258449460E0,-2.280688286E-2,1.231174469E-1,4.060220718E-2,1.316305393E-1
7.266457858E0,-2.064824104E-3,8.056354523E-2,3.389501572E-2,8.742780112E-2
7.274466491E0,-1.923370361E-2,6.445789337E-2,3.661775589E-2,7.658730586E-2
7.282478288E0,-2.667963505E-2,6.277656555E-2,3.447055817E-2,7.642590849E-2
7.290488014E0,-3.678454459E-2,7.088088989E-2,3.678607941E-2,8.792280086E-2
7.298492897E0,-4.478842020E-2,6.961441040E-2,1.483631134E-2,8.409687779E-2
7.306500827E0,-5.295360088E-2,7.558155060E-2,2.392673492E-2,9.533699849E-2
7.314511843E0,-5.370557308E-2,8.407211304E-2,-1.744461060E-2,1.012754818E-1
7.322519968E0,-6.915217638E-2,7.841205597E-2,-1.127243042E-2,1.051548463E-1
7.330528561E0,-5.633184314E-2,7.055759430E-2,2.570247650E-2,9.387368089E-2
7.338539616E0,-4.124066234E-2,8.923435211E-2,5.758523941E-2,1.139281424E-1
7.346551569E0,-4.545271397E-2,8.169174194E-2,5.576467514E-2,1.088539797E-1
7.354561061E0,-2.869445086E-2,9.090137482E-2,5.153512955E-2,1.083618984E-1
7.362569147E0,-9.693145752E-3,8.822917938E-2,5.434274673E-2,1.040743931E-1
7.370578639E0,-9.882509708E-3,1.000862122E-1,1.834392548E-3,1.005896558E-1
7.378589928E0,1.148292422E-2,1.168394089E-1,-4.844141006E-2,1.270034457E-1
7.386601843E0,6.927162409E-3,1.408205032E-1,-1.975965500E-2,1.423686892E-1
7.394615241E0,-1.847967505E-2,1.287040710E-1,2.359962463E-2,1.321483204E-1
7.402626843E0,-1.767301559E-2,1.117591858E-1,3.110361099E-2,1.173451563E-1
7.410637936E0,-3.668138385E-2,1.167907715E-1,1.049599648E-1,1.612519843E-1
7.418651139E0,-6.042084098E-2,7.887744904E-2,1.738042831E-1,2.002005465E-1
7.426664030E0,4.513415694E-2,2.127647400E-2,2.027568817E-1,2.088064500E-1
7.434677819E0,8.844868839E-2,-8.333206177E-3,5.566406250E-2,1.048384503E-1
7.442686647E0,1.483145505E-1,-1.915073395E-2,-2.863931656E-2,1.522634787E-1
7.450696960E0,1.553489864E-1,-2.023506165E-2,1.731395721E-3,1.566708748E-1
7.458711218E0,6.011135876E-2,5.197525024E-4,-1.858425140E-2,6.292074376E-2
7.466722311E0,2.464286983E-2,1.448249817E-2,1.556825638E-2,3.254818571E-2
7.474735163E0,-5.389729142E-2,4.550838470E-2,4.447412491E-2,8.338992078E-2
7.482745788E0,-8.432048559E-2,6.210899353E-2,6.629514694E-2,1.239456247E-1
7.490761882E0,-6.934154034E-2,9.046936035E-2,4.294490814E-2,1.218081258E-1
7.498778366E0,-3.546410799E-2,1.018934250E-1,1.027631760E-2,1.083770073E-1
7.506794030E0,9.665369987E-3,1.204595566E-1,-7.997989655E-3,1.211110729E-1
7.514808561E0,1.649433374E-2,1.127529144E-1,-3.671646118E-5,1.139529908E-1
7.522822194E0,3.535772860E-2,1.196451187E-1,3.630685806E-2,1.299357970E-1
7.530838093E0,2.558921278E-2,1.244153976E-1,3.871870041E-2,1.327898217E-1
7.538851335E0,1.066431403E-2,1.222124100E-1,2.403545380E-2,1.250092148E-1
7.546867936E0,2.214024961E-2,1.128816605E-1,-1.467132568E-2,1.159642519E-1
7.554885280E0,2.420885861E-2,1.037664413E-1,-2.017879486E-2,1.084468854E-1
7.562901647E0,2.159340680E-2,8.530139923E-2,1.228094101E-2,8.884495169E-2
7.570917077E0,2.129004896E-2,6.930255890E-2,3.505086899E-2,8.052747526E-2
7.578932272E0,2.328123152E-2,5.807209015E-2,5.066394806E-2,8.050601858E-2
7.586949147E0,8.593052626E-3,4.196643829E-2,5.683708191E-2,7.117216012E-2
7.594965475E0,1.326659322E-2,4.728698730E-2,7.038593292E-2,8.582680943E-2
7.602980788E0,1.087385416E-2,3.586673737E-2,4.800081253E-2,6.089943807E-2
7.610994069E0,2.255903184E-2,4.600524902E-2,5.910491943E-2,7.822265884E-2
7.619006764E0,1.007980108E-2,6.339454651E-2,3.657388687E-2,7.387909121E-2
7.627017507E0,4.535913467E-4,7.842922211E-2,4.752635956E-2,9.170661633E-2
7.635030944E0,5.127429962E-3,8.637714386E-2,4.157018661E-2,9.599678086E-2
7.643044421E0,-7.063657045E-3,8.245849609E-2,4.263401031E-2,9.309649652E-2
7.651058561E0,-2.094328403E-3,9.054279327E-2,2.690982819E-2,9.448027560E-2
7.659072468E0,9.359955788E-3,8.428287506E-2,2.069377899E-2,8.728942828E-2
7.667088639E0,-5.182981491E-3,6.836986542E-2,1.940393448E-2,7.125878520E-2
7.675101178E0,-1.926994324E-2,3.078937531E-2,6.343841553E-3,3.687222084E-2
7.683115514E0,-3.312775493E-2,2.644538879E-2,1.766490936E-2,4.592227954E-2
7.691130280E0,-3.958821297E-2,3.150749207E-2,2.925491333E-2,5.844483396E-2
7.699143405E0,-2.671936154E-2,4.121494293E-2,4.346561432E-2,6.558853124E-2
7.707157624E0,-2.096739411E-2,4.603195190E-2,3.867912292E-2,6.367610825E-2
7.715171257E0,-1.784166694E-2,7.717037201E-2,7.568836212E-3,7.956681894E-2
7.723190007E0,-4.936009645E-3,1.012058258E-1,-2.125740051E-2,1.035319296E-1
7.731206647E0,-2.272620797E-2,9.659099579E-2,2.486705780E-3,9.925968316E-2
7.739223991E0,-4.581454396E-2,1.112985611E-1,4.270982742E-2,1.277124563E-1
7.747241022E0,-6.688743830E-2,1.117849350E-1,8.030366898E-2,1.530309784E-1
7.755254069E0,-5.213758349E-2,1.197175980E-1,5.524444580E-2,1.417835663E-1
7.763266335E0,-3.448182344E-2,1.182107925E-1,1.271724701E-3,1.231438383E-1
7.771275749E0,-2.316078544E-2,8.526706696E-2,7.668495178E-3,8.868878456E-2
7.779291022E0,1.192367077E-2,7.345008850E-2,5.300569534E-2,9.136023842E-2
7.787304421E0,2.690231800E-2,5.930423737E-2,-2.391147614E-2,6.937208354E-2
7.795319850E0,2.120178938E-2,3.581047058E-2,-1.156153679E-1,1.228772516E-1
7.803331608E0,-2.176085114E-2,7.934570312E-3,-5.704593658E-2,6.156891204E-2
7.811345319E0,-4.322803020E-2,-3.179931641E-2,2.289581299E-2,5.834447165E-2
7.819357350E0,-5.901336670E-3,-8.364391327E-2,1.700382233E-1,1.895893651E-1
7.827370397E0,4.972907901E-2,-1.003704071E-1,1.938400269E-1,2.238775467E-1
7.835381764E0,7.033728063E-2,-8.189868927E-2,1.613068581E-1,1.940995384E-1
7.843392546E0,8.215922117E-2,-2.574920654E-2,1.723623276E-2,8.780801205E-2
7.851403874E0,6.803746521E-2,5.412578583E-2,-5.705595016E-2,1.039907631E-1
7.859414928E0,4.020310938E-2,1.200056076E-1,-1.934671402E-2,1.280309775E-1
7.867427038E0,3.226548433E-3,1.673231125E-1,-1.363229752E-2,1.679085290E-1
7.875440280E0,-1.714313030E-2,1.574373245E-1,-5.922794342E-3,1.584786344E-1
7.883452780E0,-4.197391868E-2,1.498966217E-1,3.300094604E-2,1.591221841E-1
7.891463678E0,-5.514878035E-2,1.206951141E-1,4.813766479E-2,1.411592481E-1
7.899474303E0,-4.910567403E-2,1.009502411E-1,3.712749481E-2,1.182403031E-1
7.907485475E0,-3.386369348E-2,9.789466858E-2,9.444236755E-3,1.040159097E-1
7.915496803E0,-1.853695512E-2,6.856536865E-2,8.007526398E-3,7.147691209E-2
7.923505397E0,-8.304595947E-3,5.140113831E-2,-2.725839615E-2,5.877128120E-2
7.931518053E0,-1.674044132E-2,2.248764038E-2,-4.846954346E-2,5.599315126E-2
7.939528600E0,-3.049567342E-2,3.185939789E-2,-5.770635605E-2,7.262940768E-2
7.947540944E0,-2.740034461E-2,1.984310150E-2,-6.478357315E-2,7.308514837E-2
7.955555280E0,-3.138267994E-2,1.279735565E-2,-5.537366867E-2,6.492216951E-2
7.963567116E0,-1.615941525E-2,2.258300781E-2,-6.282854080E-2,6.869166239E-2
7.971578405E0,-2.729102969E-2,2.522754669E-2,-6.077051163E-2,7.123401222E-2
7.979592585E0,-5.016747117E-2,1.596546173E-2,-5.640411377E-2,7.715630358E-2
7.987606647E0,-4.218262434E-2,2.349281311E-2,-2.336645126E-2,5.364025642E-2
7.995623952E0,-3.946194053E-2,2.627468109E-2,2.155256271E-2,5.207798552E-2
8.003642663E0,-4.378244281E-2,1.700687408E-2,4.505157471E-2,6.508287369E-2
8.011660827E0,-1.689210534E-2,2.192306519E-2,4.249095917E-2,5.070942339E-2
8.019677077E0,-9.537070990E-3,4.343986511E-2,4.237651825E-3,4.467589168E-2
8.027690749E0,-9.235173464E-3,6.721973419E-2,-2.422857285E-2,7.204724031E-2
8.035704421E0,-1.132601500E-2,1.005544662E-1,-4.548025131E-2,1.109411220E-1
8.043716257E0,-4.121318460E-2,1.024646759E-1,-2.552938461E-2,1.133546906E-1
8.051728718E0,-1.727059484E-2,9.946346283E-2,2.327585220E-2,1.036002856E-1
8.059741022E0,1.552343369E-2,9.209537506E-2,4.506778717E-2,1.036997615E-1
8.067753835E0,-6.730467081E-3,8.299732208E-2,1.113419533E-1,1.390355538E-1
8.075765436E0,1.439967752E-2,5.968570709E-2,1.414890289E-1,1.542364407E-1
8.083778366E0,4.512597620E-2,9.635925293E-3,1.171789169E-1,1.259369023E-1
8.091790046E0,6.858927011E-2,-1.004505157E-2,1.107702255E-1,1.306730037E-1
8.099802858E0,7.834552228E-2,-1.826000214E-2,7.882738113E-2,1.126286134E-1
8.107815788E0,7.569383085E-2,-1.243209839E-2,1.862144470E-2,7.893586828E-2
8.115826569E0,8.789747953E-3,2.463054657E-2,-4.173135757E-2,4.924865174E-2
8.123840593E0,-7.643193007E-3,5.498027802E-2,-4.053592682E-2,6.873434900E-2
8.131852507E0,-2.398088574E-2,9.523963928E-2,5.647182465E-3,9.837460262E-2
8.139867468E0,-2.701687813E-2,1.240787506E-1,2.460098267E-2,1.293470386E-1
8.147879186E0,1.273393631E-3,1.362962723E-1,4.096317291E-2,1.423245478E-1
8.155891022E0,2.734246850E-2,1.341562271E-1,2.140808105E-2,1.385778113E-1
8.163903796E0,3.159663081E-2,1.127319336E-1,3.556060791E-2,1.223576429E-1
8.171913014E0,2.575549483E-2,9.154415131E-2,2.777433395E-2,9.907113999E-2
8.179922272E0,-8.596539497E-3,8.959007263E-2,5.579376221E-2,1.058925187E-1
8.187930671E0,-4.744559526E-3,7.582473755E-2,4.525756836E-2,8.843160726E-2
8.195941296E0,-1.135438681E-3,5.724716187E-2,4.432296753E-2,7.240892357E-2
8.203955475E0,-1.845979691E-2,6.029891968E-2,5.766057968E-2,8.544861769E-2
8.211965475E0,-1.713031530E-2,4.175472260E-2,5.189275742E-2,6.877327122E-2
8.219975202E0,-3.762274981E-3,4.715633392E-2,3.415203094E-2,5.834582898E-2
8.227986374E0,-1.417991519E-2,3.829860687E-2,1.626014709E-2,4.395731642E-2
8.235995241E0,-1.959785819E-2,3.904438019E-2,7.328987122E-4,4.369298354E-2
8.244002975E0,-1.800239086E-2,3.740692139E-2,-4.549026489E-4,4.151590997E-2
8.252012116E0,5.137652159E-3,3.575992584E-2,6.062316895E-2,7.057149835E-2
8.260024889E0,9.292423725E-3,5.310344696E-2,6.928348541E-2,8.778682457E-2
8.268036257E0,6.330072880E-3,5.123806000E-2,8.042287827E-2,9.556802794E-2
8.276047975E0,1.024663448E-3,6.365680695E-2,8.450984955E-2,1.058071532E-1
8.284058132E0,2.450019121E-3,8.084678650E-2,7.662534714E-2,1.114165576E-1
8.292068757E0,-2.196806669E-2,7.174587250E-2,7.109308243E-2,1.033648516E-1
8.300078288E0,-2.486470342E-2,9.382057190E-2,6.787824631E-2,1.184398983E-1
8.308086452E0,-2.065348625E-2,8.969593048E-2,7.402896881E-2,1.181194932E-1
8.316094616E0,-2.631431818E-2,8.800315857E-2,3.701066971E-2,9.902923271E-2
8.324103757E0,-3.482013941E-3,7.205009460E-2,3.813314438E-2,8.159336526E-2
8.332114733E0,-1.388210058E-2,5.139064789E-2,2.238321304E-2,5.774703138E-2
8.340127428E0,-1.232758164E-2,4.490756989E-2,3.565216064E-2,5.864925968E-2
8.348137741E0,-2.242693305E-2,2.627944946E-2,4.919910431E-2,6.011762350E-2
8.356148835E0,-2.289950848E-2,2.659320831E-2,4.151868820E-2,5.436347751E-2
8.364157780E0,-1.839342713E-2,3.635597229E-2,4.122352600E-2,5.796079691E-2
8.372168522E0,8.437335491E-4,5.088901520E-2,2.182149887E-2,5.537672406E-2
8.380177819E0,-2.056360245E-3,7.762908936E-2,2.032756805E-3,7.768292111E-2
8.388187858E0,1.193916798E-2,7.339477539E-2,1.177787781E-3,7.436883736E-2
8.396197116E0,-1.667553186E-2,9.808444977E-2,4.794120789E-2,1.104399930E-1
8.404210241E0,-3.161475062E-2,8.454608917E-2,1.328568459E-1,1.606190373E-1
8.412220983E0,-4.686141014E-2,7.343387604E-2,1.746139526E-1,1.951372808E-1
8.420230124E0,-7.566809654E-5,7.429885864E-2,1.301622391E-1,1.498750633E-1
8.428243288E0,1.373013854E-2,7.018852234E-2,8.841276169E-2,1.137179045E-1
8.436256257E0,4.625916481E-3,5.103397369E-2,2.379369736E-2,5.649783720E-2
8.444270710E0,1.653027534E-2,5.531501770E-2,-2.332830429E-2,6.226725437E-2
8.452286647E0,4.127544165E-2,7.202434540E-2,-9.994506836E-2,1.299237665E-1
8.460297936E0,-3.888219595E-3,7.290840149E-2,-8.700942993E-2,1.135843042E-1
8.468311335E0,-4.384732246E-2,5.508422852E-2,-3.162717819E-2,7.718250008E-2
8.476323561E0,-2.905219793E-2,3.856658936E-3,8.102750778E-2,8.616473200E-2
8.484336647E0,-2.908433974E-2,-5.735778809E-2,2.206187248E-1,2.298008625E-1
8.492351218E0,3.549566865E-2,-9.544849396E-2,2.441210747E-1,2.645098421E-1
8.500363757E0,7.448737323E-2,-7.483577728E-2,1.185588837E-1,1.587607358E-1
8.508378561E0,7.803075016E-2,-1.404953003E-2,-3.491926193E-2,8.663453190E-2
8.516393757E0,6.086948514E-2,5.171394348E-2,-4.019975662E-2,8.941726122E-2
8.524407155E0,4.406681657E-2,1.250686646E-1,-1.016950607E-2,1.329942631E-1
8.532422975E0,-8.379995823E-3,1.605405807E-1,7.266521454E-3,1.609232883E-1
8.540437350E0,-4.612986743E-2,1.696605682E-1,1.755571365E-2,1.766943015E-1
8.548447663E0,-6.245207787E-2,1.737928391E-1,1.138162613E-2,1.850236589E-1
8.556458639E0,-6.421674788E-2,1.729660034E-1,7.868766785E-3,1.846698312E-1
8.564472819E0,-4.708676040E-2,1.650390625E-1,1.619243622E-2,1.723869199E-1
8.572491647E0,-2.538374066E-2,1.332836151E-1,9.967327118E-3,1.360448601E-1
8.580509733E0,-8.429959416E-3,1.089935303E-1,3.320217133E-3,1.093694551E-1
8.588525553E0,-1.064588130E-2,7.544708252E-2,1.534175873E-2,7.772365541E-2
8.596540632E0,-8.919835091E-4,3.724384308E-2,4.392194748E-2,5.759372320E-2
8.604556257E0,4.183709621E-3,1.577281952E-2,4.621219635E-2,4.900869671E-2
8.612573444E0,-3.472119570E-4,-9.317398071E-4,4.135465622E-2,4.136660835E-2
8.620588093E0,-7.043778896E-5,-3.307342529E-3,3.894233704E-2,3.908259318E-2
8.628602663E0,-6.669387221E-3,3.904342651E-3,3.012657166E-3,8.294619982E-3
8.636616257E0,-4.206335545E-2,2.307033539E-2,-3.050041199E-2,5.684928652E-2
8.644631413E0,-3.706803918E-2,2.804183960E-2,-1.400613785E-2,4.854437345E-2
8.652646725E0,-4.660364985E-2,5.717754364E-2,4.536628723E-3,7.390367160E-2
8.660664889E0,-3.683422506E-2,6.497192383E-2,2.277517319E-2,7.808213327E-2
8.668683132E0,-2.009148896E-2,8.480834961E-2,2.892923355E-2,9.183150138E-2
8.676700944E0,-5.902782083E-3,7.592296600E-2,5.899906158E-2,9.633290648E-2
8.684718093E0,-8.575797081E-3,7.182884216E-2,3.639364243E-2,8.097792336E-2
8.692736647E0,3.403082490E-3,8.206558228E-2,9.065151215E-3,8.263484574E-2
8.700755163E0,-1.108542085E-3,8.266735077E-2,3.450584412E-2,8.958667885E-2
8.708772975E0,-2.162936330E-2,7.563877106E-2,3.432178497E-2,8.583145092E-2
8.716789968E0,-3.293780982E-2,6.117343903E-2,6.323337555E-2,9.394439175E-2
8.724808053E0,-3.777910769E-2,8.045387268E-2,7.980012894E-2,1.194493499E-1
8.732827897E0,-5.253215134E-2,9.318447113E-2,1.217322350E-1,1.620546501E-1
8.740845124E0,-1.714403927E-2,7.966136932E-2,1.826891899E-1,2.000379763E-1
8.748863874E0,4.707768559E-2,5.579185486E-2,1.370701790E-1,1.552973712E-1
8.756884108E0,9.008125961E-2,3.580951691E-2,5.930566788E-2,1.136402969E-1
8.764899928E0,1.146127582E-1,3.216266632E-2,-2.257680893E-2,1.211620144E-1
8.772914811E0,1.006456017E-1,5.021667480E-2,-1.371765137E-2,1.133111889E-1
8.780930163E0,6.971767545E-2,4.978466034E-2,-1.088619232E-3,8.567526928E-2
8.788943249E0,6.932139397E-3,5.463218689E-2,6.344413757E-2,8.401124326E-2
8.796957858E0,-3.062075377E-2,7.920265198E-2,8.886575699E-2,1.229138455E-1
8.804973366E0,-2.116963267E-2,7.989025116E-2,9.500551224E-2,1.259232025E-1
8.812988288E0,-1.152649522E-2,9.002494812E-2,7.262039185E-2,1.162371399E-1
8.821002468E0,5.162209272E-3,9.758281708E-2,4.092693329E-2,1.059437042E-1
8.829018327E0,2.896773815E-2,8.827018738E-2,4.052352905E-2,1.013553760E-1
8.837033405E0,4.113075137E-2,8.630084991E-2,3.989219666E-2,1.035903604E-1
8.845045475E0,2.644406259E-2,7.979965210E-2,7.715797424E-2,1.141079573E-1
8.853057272E0,2.619124949E-2,7.096958160E-2,1.095409393E-1,1.331235533E-1
8.861071530E0,1.668342948E-2,7.158851624E-2,1.157970428E-1,1.371576013E-1
8.869083444E0,1.424889266E-2,4.585742950E-2,9.333753586E-2,1.049658534E-1
8.877097116E0,-1.945114136E-2,5.342864990E-2,7.598400116E-2,9.490277110E-2
8.885109225E0,-2.432605624E-2,4.646587372E-2,4.692077637E-2,7.037324554E-2
8.893125358E0,-3.855387866E-2,4.666519165E-2,3.531455994E-3,6.063425478E-2
8.901144968E0,-3.620001674E-2,6.129455566E-2,2.946853638E-2,7.704452221E-2
8.909162272E0,-2.704991400E-2,5.681610107E-2,3.377246857E-2,7.141671248E-2
8.917178874E0,-6.114676595E-3,5.714607239E-2,4.043006897E-2,7.026843769E-2
8.925196257E0,2.000847459E-2,6.227874756E-2,3.032732010E-2,7.210220383E-2
8.933216843E0,3.390695155E-2,6.982231140E-2,5.370473862E-2,9.438768713E-2
8.941233014E0,2.633768320E-2,6.781864166E-2,2.915811539E-2,7.837880712E-2
8.949249030E0,1.616179943E-4,8.016872406E-2,3.817176819E-2,8.879264792E-2
8.957264303E0,1.482026279E-2,7.575702667E-2,2.325344086E-2,8.061941324E-2
8.965279772E0,-1.605156064E-2,7.131576538E-2,3.710889816E-2,8.197963963E-2
8.973298132E0,-2.779635787E-2,6.687259674E-2,3.899574280E-2,8.225113776E-2
8.981317350E0,-3.636163473E-2,5.071067810E-2,1.899147034E-2,6.522589439E-2
8.989332116E0,-4.112753272E-2,5.548572540E-2,2.380228043E-2,7.305264009E-2
8.997345788E0,-4.069966078E-2,6.056785583E-2,3.774595261E-2,8.215646345E-2
9.005360436E0,-2.154606581E-2,5.577945709E-2,3.295755386E-2,6.827723736E-2
9.013376608E0,-2.345365286E-2,5.645179749E-2,2.239370346E-2,6.510266682E-2
9.021391686E0,-2.765956521E-2,8.080005646E-2,1.941728592E-2,8.758271327E-2
9.029404928E0,-1.544016600E-2,9.332466125E-2,-7.740497589E-3,9.490946437E-2
9.037418444E0,-1.304039359E-2,1.059284210E-1,-2.305364609E-2,1.091895272E-1
9.045435788E0,-2.245324850E-2,1.018877029E-1,-1.458978653E-2,1.053475878E-1
9.053453678E0,-1.287645102E-2,1.099739075E-1,-2.312850952E-2,1.131149471E-1
9.061474069E0,-7.996261120E-3,9.173488617E-2,-1.970624924E-2,9.416775346E-2
9.069492428E0,-1.306173205E-2,8.062934875E-2,-3.537940979E-2,8.901350101E-2
9.077510514E0,-8.426755667E-3,6.938838959E-2,-4.126977921E-2,8.117236904E-2
9.085528053E0,-3.718733788E-3,5.811309814E-2,-8.793354034E-3,5.889214067E-2
9.093545436E0,1.269876957E-3,5.157279968E-2,3.095483780E-2,6.016284765E-2
9.101561413E0,-5.731284618E-4,4.761028290E-2,5.608081818E-2,7.356715083E-2
9.109576413E0,1.353986561E-2,5.329990387E-2,3.556680679E-2,6.549202592E-2
9.117593483E0,3.646552563E-3,6.618118286E-2,1.743364334E-2,6.853596305E-2
9.125611100E0,1.088678837E-3,7.442760468E-2,3.498840332E-2,8.224865912E-2
9.133626608E0,-1.799830794E-2,6.856918335E-2,9.765720367E-2,1.206756041E-1
9.141645788E0,-4.516133666E-2,5.080699921E-2,2.032818794E-1,2.143464952E-1
9.149660124E0,-3.671264648E-2,4.027748108E-2,2.202315331E-1,2.268744632E-1
9.157677936E0,-3.064531088E-2,2.480983734E-2,2.038917542E-1,2.076692334E-1
9.165696100E0,-3.287087381E-2,1.105594635E-2,1.455245018E-1,1.495998293E-1
9.173716022E0,-1.056805253E-3,1.531791687E-2,7.212066650E-2,7.373700531E-2
9.181736335E0,3.400017321E-2,6.988334656E-2,4.888677597E-2,9.181291178E-2
9.189757077E0,1.338262856E-2,1.181221008E-1,-2.832317352E-2,1.222052683E-1
9.197780710E0,-1.916794479E-2,9.980297089E-2,1.346635818E-2,1.025152960E-1
9.205801960E0,-5.152006447E-2,6.002807617E-2,7.667493820E-2,1.101668422E-1
9.213819811E0,-4.145252705E-2,-1.317024231E-3,2.308664322E-1,2.345620516E-1
9.221836178E0,-2.914428711E-3,-3.175163269E-2,3.207225800E-1,3.223036354E-1
9.229854108E0,5.751548707E-2,-4.918384552E-2,2.091188431E-1,2.223910350E-1
9.237878561E0,9.946312010E-2,-4.177093506E-4,1.260328293E-2,1.002593112E-1
9.245899538E0,1.130108833E-1,5.076122284E-2,-3.787946701E-2,1.295492783E-1
9.253915632E0,8.930909634E-2,8.331584930E-2,9.057044983E-3,1.224731624E-1
9.261935983E0,4.445260763E-2,1.090555191E-1,6.025457382E-2,1.322866367E-1
9.269954694E0,-2.821490169E-3,1.082582474E-1,8.799552917E-3,1.086519262E-1
9.277972624E0,-3.066752851E-2,1.143550873E-1,-3.908157349E-3,1.184603604E-1
9.285989850E0,-4.934415221E-2,9.123134613E-2,-2.308034897E-2,1.062577356E-1
9.294008053E0,-4.358164966E-2,9.947872162E-2,-3.062915802E-2,1.128429066E-1
9.302027624E0,-2.114070952E-2,1.055459976E-1,-1.934528351E-2,1.093669384E-1
9.310046803E0,-6.267532706E-3,8.063888550E-2,1.563930511E-2,8.238021416E-2
9.318064225E0,-7.861822844E-3,7.276535034E-2,4.544067383E-2,8.614789206E-2
9.326080710E0,-1.639845967E-2,6.013202667E-2,1.535224915E-2,6.419082228E-2
9.334096960E0,-2.731090784E-2,5.947780609E-2,-3.819465637E-4,6.544953008E-2
9.342112194E0,-2.881576121E-2,5.408763885E-2,1.731920242E-2,6.368497110E-2
9.350126413E0,-3.715658188E-2,5.835342407E-2,-1.057291031E-2,6.998228426E-2
9.358143288E0,-4.078353941E-2,5.074214935E-2,-9.876251221E-3,6.584529707E-2
9.366163249E0,-5.925853550E-2,5.766868591E-2,-2.382850647E-2,8.605259488E-2
9.374184108E0,-4.853139818E-2,6.719303131E-2,-1.651287079E-2,8.451553092E-2
9.382202311E0,-5.454231799E-2,5.769538879E-2,1.214981079E-2,8.031961306E-2
9.390220202E0,-4.680970311E-2,6.983947754E-2,6.937742233E-2,1.090042552E-1
9.398239069E0,-2.749064565E-2,5.559635162E-2,8.835506439E-2,1.079504855E-1
9.406254655E0,-2.686521411E-2,5.081653595E-2,8.837318420E-2,1.054223873E-1
9.414269928E0,-5.402445793E-3,7.241249084E-2,7.153606415E-2,1.019321526E-1
9.422285632E0,3.988474607E-3,7.963943481E-2,3.794336319E-2,8.830654742E-2
9.430306100E0,9.231925011E-3,9.657001495E-2,-1.735925674E-2,9.855120508E-2
9.438325671E0,2.684651315E-2,1.136226654E-1,6.181716919E-3,1.169147509E-1
9.446343288E0,1.813203096E-3,9.686183929E-2,3.018760681E-2,1.014731256E-1
9.454362507E0,-1.617050171E-2,9.667110443E-2,2.095031738E-2,1.002282563E-1
9.462381413E0,-5.614069104E-2,1.016540527E-1,6.378889084E-2,1.324928157E-1
9.470398132E0,-6.274491549E-2,7.583808899E-2,1.372585297E-1,1.689030613E-1
9.478419030E0,-2.868890762E-2,4.978370667E-2,1.416487694E-1,1.528589047E-1
9.486440514E0,3.871932626E-2,2.305793762E-2,4.169130325E-2,6.139234057E-2
9.494458835E0,7.285130024E-2,3.410720825E-2,-7.421255112E-2,1.094445812E-1
9.502473757E0,7.764059305E-2,3.584957123E-2,-8.281230927E-2,1.190425639E-1
9.510491413E0,5.419920385E-2,5.723571777E-2,-1.551008224E-2,8.033706329E-2
9.518509968E0,4.724979401E-3,5.989170074E-2,3.680896759E-2,7.045737253E-2
9.526528757E0,-4.004794359E-2,6.755542755E-2,3.372859955E-2,8.547041596E-2
9.534545866E0,-5.386427045E-2,7.745265961E-2,2.609062195E-2,9.788255547E-2
9.542562272E0,-4.879149795E-2,7.510757446E-2,-1.706457138E-2,9.117542218E-2
9.550577389E0,-3.198710084E-2,8.699989319E-2,-2.173328400E-2,9.520762400E-2
9.558594616E0,-1.006168127E-2,1.277284622E-1,-2.654266357E-2,1.308446043E-1
9.566611686E0,-2.228575945E-2,1.231136322E-1,2.346324921E-2,1.272955049E-1
9.574628718E0,3.164134920E-2,1.068286896E-1,6.579256058E-2,1.293916725E-1
9.582645202E0,4.044863582E-2,9.079837799E-2,7.424211502E-2,1.240658262E-1
9.590663913E0,3.492487967E-2,7.498073578E-2,1.063160896E-1,1.347032623E-1
9.598680046E0,2.469663322E-2,5.669593811E-2,8.583068848E-2,1.057887526E-1
9.606696100E0,5.013734102E-3,5.279350281E-2,9.166145325E-2,1.058967114E-1
9.614709421E0,1.607149839E-3,5.588722229E-2,6.183958054E-2,8.336724937E-2
9.622725085E0,-5.948692560E-3,5.412960052E-2,5.368661880E-2,7.646995250E-2
9.630739069E0,-2.083382010E-2,6.915473938E-2,3.591823578E-2,8.066316198E-2
9.638757663E0,-2.888152003E-2,5.780506134E-2,3.734302521E-2,7.463289387E-2
9.646776569E0,-2.743452787E-2,6.564140320E-2,4.829311371E-2,8.598646385E-2
9.654794733E0,-1.135611534E-2,7.348823547E-2,6.402826309E-2,9.812798063E-2
9.662813835E0,-1.231616735E-2,5.496120453E-2,5.826044083E-2,8.103518339E-2
9.670831960E0,-1.073506474E-2,7.240581512E-2,8.593177795E-2,1.128809733E-1
9.678851608E0,7.552057505E-4,5.859947205E-2,8.747005463E-2,1.052876010E-1
9.686869421E0,9.970769286E-3,5.913829803E-2,8.425331116E-2,1.034184460E-1
9.694890553E0,4.954412580E-3,5.482006073E-2,7.636070251E-2,9.413151518E-2
9.702911960E0,-2.279877663E-5,2.881908417E-2,6.627273560E-2,7.226766646E-2
9.710932311E0,-7.111579180E-3,3.858947754E-2,5.641317368E-2,6.871803620E-2
9.718953093E0,9.819865227E-5,3.881168365E-2,7.044887543E-2,8.043258345E-2
9.726976178E0,-1.624445617E-2,5.812263489E-2,7.741498947E-2,9.815907313E-2
9.734998835E0,-4.276931286E-3,4.635620117E-2,9.865760803E-2,1.090894731E-1
9.743020241E0,5.552664399E-3,6.569766998E-2,1.151480675E-1,1.326879549E-1
9.751041139E0,1.767681539E-2,8.025646210E-2,9.810781479E-2,1.279793453E-1
9.759063093E0,1.249766350E-2,7.089138031E-2,9.298563004E-2,1.175929708E-1
9.767086061E0,-1.372663677E-2,7.103538513E-2,8.080482483E-2,1.084613582E-1
9.775106296E0,-2.109831572E-2,7.589244843E-2,7.111644745E-2,1.061242279E-1
9.783127780E0,-4.556962848E-2,6.891536713E-2,6.360387802E-2,1.042658725E-1
9.791148913E0,-5.549333990E-2,6.418991089E-2,2.997589111E-2,8.999116335E-2
9.799168991E0,-4.865941405E-2,6.173324585E-2,2.287101746E-2,8.186461787E-2
9.807189343E0,-5.128829181E-2,6.406021118E-2,3.493213654E-2,8.918774409E-2
9.815209655E0,-2.990852296E-2,6.878757477E-2,7.811069489E-2,1.082937249E-1
9.823234733E0,-3.728722036E-2,6.150150299E-2,1.165623665E-1,1.369655320E-1
9.831258483E0,-2.792289853E-2,6.626033783E-2,1.285672188E-1,1.473080119E-1
9.839282468E0,-2.104601264E-2,7.340335846E-2,7.115364075E-2,1.043735037E-1
9.847303288E0,-2.596738935E-2,8.762454987E-2,4.741907120E-2,1.029608438E-1
9.855323014E0,-2.175883949E-2,9.709739685E-2,3.797292709E-2,1.065049049E-1
9.863341999E0,-3.358945251E-3,8.044052124E-2,1.215806007E-1,1.458211317E-1
9.871360358E0,2.439498901E-3,6.882476807E-2,1.760563850E-1,1.890466889E-1
9.879380397E0,3.202886879E-2,6.683635712E-2,1.418638229E-1,1.600571502E-1
9.887402155E0,3.132861853E-2,4.529953003E-2,9.632778168E-2,1.109620263E-1
9.895424303E0,3.913316131E-2,4.906749725E-2,1.168346405E-2,6.383985380E-2
9.903445944E0,7.884703577E-2,8.119487762E-2,-1.980304718E-2,1.148983197E-1
9.911468132E0,1.196796894E-1,1.379451752E-1,-3.799819946E-2,1.865367593E-1
9.919489460E0,8.428952098E-2,1.455278397E-1,-6.501150131E-2,1.803041063E-1
9.927511335E0,4.038316011E-2,9.101963043E-2,-3.954458237E-2,1.071407800E-1
9.935534343E0,2.276858687E-2,2.672386169E-2,8.439779282E-2,9.140875650E-2
9.943557350E0,3.326310217E-2,-2.828502655E-2,2.231159210E-1,2.273481711E-1
9.951581178E0,6.557108462E-2,-7.200813293E-2,2.646999359E-1,2.820475038E-1
9.959600983E0,9.631575644E-2,-7.824516296E-2,1.255841255E-1,1.765514176E-1
9.967620163E0,8.683948219E-2,-2.767181396E-2,-5.621910095E-4,9.114351877E-2
9.975636569E0,5.153436959E-2,1.590919495E-2,-2.473831177E-3,5.399086565E-2
9.983655436E0,-2.086888254E-2,6.213188171E-2,5.276012421E-2,8.413983414E-2
9.991670202E0,-7.456599176E-2,9.171009064E-2,6.231594086E-2,1.336192514E-1
9.999682155E0,-1.188607812E-1,1.019468307E-1,5.778121948E-2,1.669122851E-1
1.000769422E1,-1.409311444E-1,1.238336563E-1,1.305818558E-2,1.880608362E-1
1.001570981E1,-1.251353323E-1,1.359157562E-1,-2.176189423E-2,1.860256010E-1
1.002372837E1,-1.069826931E-1,1.648712158E-1,-3.041362762E-2,1.988788656E-1
1.003174708E1,-7.472234964E-2,1.725959778E-1,-2.039861679E-2,1.891795566E-1
1.003976161E1,-4.530540109E-2,1.687641144E-1,-2.060031891E-2,1.759496485E-1
1.004777712E1,-3.483749926E-2,1.604433060E-1,-1.645374298E-2,1.650043376E-1
1.005579563E1,-2.663899958E-2,1.332035065E-1,-3.420448303E-2,1.400812518E-1
1.006381458E1,-2.835018933E-2,1.012601852E-1,-2.096700668E-2,1.072239419E-1
1.007183298E1,-2.936609089E-2,8.641910553E-2,1.359462738E-3,9.128240375E-2
1.007984966E1,-2.634702623E-2,5.245304108E-2,1.882028580E-2,6.164162933E-2
1.008786805E1,-2.830430865E-2,4.731464386E-2,2.655076981E-2,6.119438528E-2
1.009588684E1,-1.516309381E-2,3.743076324E-2,2.706718445E-2,4.861701271E-2
1.010390712E1,-1.448330283E-2,3.231811523E-2,2.758646011E-2,4.489141805E-2
1.011192930E1,-1.390111446E-2,4.645347595E-2,5.908584595E-2,7.643496322E-2
1.011994895E1,-1.266956329E-3,3.662014008E-2,8.104991913E-2,8.894790176E-2
1.012797258E1,3.998428583E-3,5.083751678E-2,8.129405975E-2,9.596439285E-2
1.013599454E1,1.402851939E-2,6.495761871E-2,9.605073929E-2,1.167991272E-1
1.014401794E1,2.380494773E-2,6.714439392E-2,5.327463150E-2,8.895634622E-2
1.015203864E1,2.803951502E-3,7.907676697E-2,1.744747162E-2,8.102722681E-2
1.016006067E1,1.538693905E-2,1.151905060E-1,-1.395130157E-2,1.170480644E-1
1.016808126E1,1.180353761E-2,9.869766235E-2,3.837633133E-2,1.065518412E-1
1.017610172E1,-1.322540641E-2,1.010713577E-1,4.804468155E-2,1.126881633E-1
1.018412102E1,-3.130024672E-2,1.013231277E-1,3.813982010E-2,1.126975046E-1
1.019213903E1,-4.993483424E-2,9.483909607E-2,1.376686096E-1,1.744723127E-1
1.020015548E1,-3.491699696E-2,5.467128754E-2,2.039346695E-1,2.140034948E-1
1.020817356E1,1.841887832E-2,1.170253754E-2,1.511020660E-1,1.526697050E-1
1.021619048E1,3.797520697E-2,-3.413200378E-3,-1.294898987E-2,4.026714070E-2
1.022420907E1,7.917261124E-2,7.554054260E-3,-7.365894318E-2,1.084020572E-1
1.023222790E1,6.296966970E-2,9.292602539E-3,-6.067466736E-2,8.793717657E-2
1.024024434E1,1.312223077E-2,3.549671173E-2,-1.975107193E-2,4.268857372E-2
1.024825794E1,-4.391336441E-2,4.763031006E-2,4.706144333E-2,8.007377510E-2
1.025627290E1,-7.937484980E-2,6.215667725E-2,5.641698837E-2,1.155279009E-1
1.026428985E1,-7.182019949E-2,9.568023682E-2,4.685068130E-2,1.284828203E-1
1.027230649E1,-5.720305443E-2,1.027202606E-1,-7.989406586E-3,1.178451187E-1
1.028032102E1,-2.587881684E-2,1.072692871E-1,4.352092743E-3,1.104325759E-1
1.028834059E1,1.242840290E-2,1.336050034E-1,2.350568771E-2,1.362251059E-1
1.029636176E1,2.352729440E-2,1.096572876E-1,4.023265839E-2,1.191508334E-1
1.030437841E1,4.642039537E-2,1.217651367E-1,4.236936569E-2,1.370283357E-1
1.031239692E1,3.385929763E-2,1.124649048E-1,3.952980042E-2,1.239250256E-1
1.032041598E1,2.842034400E-2,1.177005768E-1,4.840183258E-2,1.303989230E-1
1.032843446E1,1.372078061E-2,1.038751602E-1,5.475521088E-2,1.182220024E-1
1.033645192E1,1.072713733E-2,7.329177856E-2,5.151605606E-2,9.022560785E-2
1.034447172E1,3.086566925E-3,6.190586090E-2,4.103565216E-2,7.433563922E-2
1.035249063E1,-8.780986071E-3,4.337692261E-2,5.686044693E-2,7.205396281E-2
1.036050841E1,-4.165321589E-3,1.994132996E-2,7.045602798E-2,7.334206449E-2
1.036852508E1,5.052030087E-3,5.970001221E-3,7.463264465E-2,7.504129244E-2
1.037654438E1,2.882160246E-2,1.813030243E-2,4.082012177E-2,5.315707832E-2
1.038456384E1,2.139906585E-2,3.268241882E-2,2.616310120E-2,4.701668197E-2
1.039258286E1,3.120850027E-2,3.769683838E-2,1.864957809E-2,5.237202379E-2
1.040060016E1,2.383564413E-2,4.990673065E-2,3.743743896E-2,6.678608786E-2
1.040861774E1,1.217353344E-2,6.448936462E-2,3.951835632E-2,7.660792095E-2
1.041663798E1,7.721245289E-3,8.144187927E-2,5.839586258E-2,1.005110645E-1
1.042465778E1,-8.603870869E-3,7.921886444E-2,5.097770691E-2,9.459588616E-2
1.043267774E1,-8.241772652E-3,9.847831726E-2,2.210617065E-2,1.012649424E-1
1.044069985E1,-1.019641757E-2,9.878349304E-2,-1.424503326E-2,1.003248045E-1
1.044872169E1,-2.429768443E-2,8.015918732E-2,1.130819321E-2,8.452069577E-2
1.045674126E1,-3.348669410E-2,7.839679718E-2,2.234745026E-2,8.812959221E-2
1.046476282E1,-4.995089769E-2,5.486488342E-2,1.935005188E-2,7.667902008E-2
1.047278622E1,-5.391103029E-2,4.321193695E-2,2.130699158E-2,7.230254886E-2
1.048081321E1,-5.829289556E-2,4.812526703E-2,3.789758682E-2,8.455962444E-2
1.048883602E1,-5.278319120E-2,4.334831238E-2,5.946254730E-2,9.055901938E-2
1.049685954E1,-5.235445499E-2,7.445430756E-2,6.429958344E-2,1.114399807E-1
1.050488610E1,-3.512334824E-2,8.169651031E-2,3.310966492E-2,9.489056486E-2
1.051290930E1,-2.766221762E-2,1.154842377E-1,1.595497131E-3,1.187617491E-1
1.052092919E1,-3.229075670E-2,1.183128357E-1,-2.299165726E-2,1.247767461E-1
1.052894946E1,-4.169979692E-2,1.332931519E-1,5.270624161E-2,1.492778795E-1
1.053696934E1,-7.088059187E-2,1.268997192E-1,1.065664291E-1,1.802331847E-1
1.054499200E1,-3.797698021E-2,1.159410477E-1,6.431484222E-2,1.379165563E-1
1.055301317E1,-2.650836110E-2,1.123237610E-1,2.183055878E-2,1.174559227E-1
1.056103208E1,-1.664134860E-2,8.445453644E-2,-5.784511566E-3,8.627261316E-2
1.056905262E1,-1.960486174E-3,7.052421570E-2,5.104017258E-2,8.707817018E-2
1.057707340E1,2.837036550E-2,4.927921295E-2,2.421331406E-2,6.180293719E-2
1.058509422E1,3.907762468E-2,4.989337921E-2,-1.252117157E-1,1.403366801E-1
1.059311903E1,-1.864799857E-2,1.242446899E-2,-1.408438683E-1,1.426152534E-1
1.060114114E1,-4.779487848E-2,-3.932571411E-2,-8.170604706E-3,6.243092968E-2
1.060915942E1,-2.729979157E-2,-7.908916473E-2,1.699390411E-1,1.894192501E-1
1.061717505E1,3.560586274E-2,-9.066867828E-2,2.315201759E-1,2.511775837E-1
1.062519192E1,7.318797708E-2,-1.057434082E-1,1.583275795E-1,2.039749269E-1
1.063320919E1,8.483226597E-2,-2.368164062E-2,-1.896381378E-3,8.809613905E-2
1.064122516E1,8.111059666E-2,5.333518982E-2,-6.110572815E-2,1.147060651E-1
1.064924333E1,5.874679983E-2,1.379756927E-1,-5.870389938E-2,1.610423115E-1
1.065726422E1,1.449117064E-2,1.822719574E-1,-2.094173431E-2,1.840424318E-1
1.066528176E1,1.376783848E-2,1.863317490E-1,2.093648911E-2,1.880090706E-1
1.067329899E1,-6.086051464E-3,1.832895279E-1,2.198886871E-2,1.847040915E-1
1.068131649E1,-3.793314099E-2,1.658573151E-1,6.138944626E-2,1.808763010E-1
1.068933653E1,-3.890109062E-2,1.530761719E-1,3.873729706E-2,1.626228380E-1
1.069735598E1,-3.976121545E-2,1.379251480E-1,3.759860992E-2,1.483844877E-1
1.070537567E1,-4.064705968E-2,9.659957886E-2,2.424478531E-2,1.075707754E-1
1.071339403E1,-3.453969955E-2,5.550003052E-2,2.491283417E-2,6.995636882E-2
1.072141180E1,-2.438423038E-2,4.085254669E-2,1.100063324E-2,4.883170275E-2
1.072943227E1,-1.905280352E-2,1.437091827E-2,-1.748418808E-2,2.958427702E-2
1.073745344E1,5.486607552E-3,-1.446342468E-2,-2.932071686E-3,1.574454065E-2
1.074547462E1,2.233633399E-2,-1.450729370E-2,1.389646530E-2,3.004139036E-2
1.075349251E1,2.518528700E-2,-1.163482666E-4,-1.245450974E-2,2.809674413E-2
1.076150618E1,1.343727112E-2,9.474754333E-3,-1.725292206E-2,2.383263612E-2
1.076952036E1,6.655663252E-3,3.834056854E-2,-2.222633362E-2,4.481413790E-2
1.077753579E1,-1.678544283E-2,5.046176910E-2,-2.242517471E-2,5.771507336E-2
1.078555032E1,-1.648908854E-2,7.944488525E-2,-1.081943512E-2,8.185621546E-2
1.079356735E1,-2.559271455E-2,8.700370789E-2,3.652334213E-2,9.776802516E-2
1.080158294E1,-3.710836172E-2,7.304859161E-2,3.113985062E-2,8.765168306E-2
1.080959848E1,-2.972584963E-2,8.787345886E-2,8.910179138E-3,9.319207156E-2
1.081761497E1,-3.394609690E-2,8.828735352E-2,-3.238296509E-2,9.997825120E-2
1.082563212E1,-4.280278087E-2,1.079359055E-1,-7.618761063E-2,1.388768870E-1
1.083364704E1,-3.673806787E-2,1.083450317E-1,-8.631324768E-2,1.433119264E-1
1.084166114E1,-3.821837902E-2,9.665298462E-2,-2.443552017E-2,1.067686217E-1
1.084967739E1,-4.951179028E-3,7.808303833E-2,8.194446564E-3,7.866780792E-2
1.085769227E1,-1.258447766E-2,6.961631775E-2,1.608037949E-2,7.254915147E-2
1.086571051E1,-8.012324572E-3,5.193042755E-2,6.175136566E-2,8.108142705E-2
1.087372540E1,2.053308487E-2,5.263328552E-3,8.625078201E-2,8.881727084E-2
1.088173977E1,4.236324131E-2,-1.348972321E-2,4.975223541E-2,6.672257321E-2
1.088975634E1,5.931553245E-2,-3.546047211E-2,2.166509628E-2,7.242343452E-2
1.089777282E1,2.867022157E-2,-5.054950714E-2,-2.989578247E-2,6.535282769E-2
1.090578672E1,3.227144480E-3,-1.294994354E-2,-3.118419647E-2,3.392004730E-2
1.091379911E1,-4.412701726E-2,2.017116547E-2,-2.577018738E-2,5.493789335E-2
1.092180962E1,-5.815204978E-2,5.611228943E-2,1.251316071E-2,8.177303412E-2
1.092982118E1,-4.173281789E-2,9.719657898E-2,4.064989090E-2,1.133190923E-1
1.093783716E1,3.071665764E-3,1.215648651E-1,3.518676758E-2,1.265921015E-1
1.094585036E1,2.648031712E-2,1.458892822E-1,1.064252853E-2,1.486544761E-1
1.095386259E1,3.719663620E-2,1.391754150E-1,2.692222595E-3,1.440855092E-1
1.096187891E1,2.692338824E-2,1.229057312E-1,2.107429504E-2,1.275727773E-1
1.096989262E1,3.579875827E-2,9.479713440E-2,2.249956131E-2,1.037992199E-1
1.097790649E1,2.548807859E-2,6.906700134E-2,3.592109680E-2,8.191592043E-2
1.098592079E1,8.149117231E-3,4.577350616E-2,3.970766068E-2,6.114180480E-2
1.099393309E1,1.260080934E-2,2.481460571E-2,2.923011780E-2,4.036018879E-2
1.100194844E1,-5.043834448E-3,6.195068359E-3,3.556823730E-2,3.645433641E-2
1.100996579E1,-1.754590869E-2,2.004623413E-3,3.943347931E-2,4.320736878E-2
1.101798051E1,-3.708234429E-2,1.002597809E-2,4.055404663E-2,5.585920867E-2
1.102599637E1,-4.736846685E-2,5.959510803E-3,2.028226852E-2,5.187155133E-2
1.103401466E1,-2.679187059E-2,2.826976776E-2,7.122993469E-3,3.959445839E-2
1.104202989E1,-1.766628027E-2,3.148365021E-2,5.874156952E-3,3.657626838E-2
1.105004309E1,1.824674010E-2,5.303096771E-2,2.742195129E-2,6.242748172E-2
1.105805626E1,3.780598938E-2,6.650447845E-2,4.902029037E-2,9.085773141E-2
1.106606801E1,3.018325567E-2,6.006717682E-2,7.661437988E-2,1.019257468E-1
1.107408298E1,3.225772083E-2,5.831241608E-2,7.564306259E-2,1.008105716E-1
1.108209837E1,1.523175836E-2,6.363201141E-2,5.089282990E-2,8.289221600E-2
1.109011415E1,7.661908865E-3,5.030822754E-2,2.058982849E-2,5.489593467E-2
1.109812825E1,-1.388588548E-2,6.227874756E-2,2.777242661E-2,6.958999851E-2
1.110614325E1,-1.919364929E-2,6.543827057E-2,5.533504486E-2,8.782101467E-2
1.111415899E1,-1.023000479E-2,6.386375427E-2,4.689788818E-2,7.989145151E-2
1.112217098E1,-6.162613630E-3,5.766773224E-2,5.736112595E-2,8.157109732E-2
1.113017051E1,-2.223286033E-2,5.618000031E-2,6.550359726E-2,8.911348813E-2
1.113817313E1,-1.406738162E-2,4.980945587E-2,7.140874863E-2,8.819343797E-2
1.114617446E1,-2.985563874E-2,4.802894592E-2,3.929853439E-2,6.886591041E-2
1.115417450E1,-3.786358237E-2,4.583168030E-2,1.023721695E-2,6.032407811E-2
1.116217407E1,-3.135961294E-2,5.311775208E-2,-1.920700073E-3,6.171393682E-2
1.117017473E1,-4.145225883E-2,6.033897400E-2,2.786159515E-3,7.325874849E-2
1.117817958E1,-4.666385055E-2,8.456707001E-2,1.670551300E-2,9.802131626E-2
1.118618059E1,-3.780570626E-2,9.709644318E-2,2.780771255E-2,1.078436812E-1
1.119418040E1,-3.128096461E-2,1.001605988E-1,1.002216339E-2,1.054091459E-1
1.120218422E1,-1.518383622E-2,1.130132675E-1,2.543640137E-2,1.168313230E-1
1.121018508E1,-4.204496741E-2,1.114692688E-1,8.160686493E-2,1.444051854E-1
1.121818141E1,-7.597646117E-2,1.171302795E-1,1.353559494E-1,1.944560569E-1
1.122618407E1,-6.022444367E-2,9.418296814E-2,1.386189461E-1,1.780803956E-1
1.123418719E1,-6.835255027E-2,9.283351898E-2,1.035017967E-1,1.549282263E-1
1.124218985E1,-4.424685240E-2,6.007671356E-2,9.279966354E-2,1.190746531E-1
1.125018973E1,-3.410917521E-2,4.562854767E-2,5.703639984E-2,8.061359130E-2
1.125819301E1,1.460433006E-3,4.998493195E-2,-2.373981476E-2,5.535526254E-2
1.126619450E1,3.577363491E-2,8.604335785E-2,-1.245870590E-1,1.555800362E-1
1.127419895E1,-6.288260221E-3,9.402847290E-2,-1.066884995E-1,1.423493303E-1
1.128220227E1,4.216730595E-3,1.851272583E-2,-3.177404404E-2,3.701474988E-2
1.129020665E1,3.609831631E-2,-7.118415833E-2,1.553902626E-1,1.746894575E-1
1.129821048E1,5.530191958E-2,-1.063566208E-1,2.738971710E-1,2.989810920E-1
1.130621360E1,8.682897687E-2,-1.375045776E-1,2.211670876E-1,2.745207838E-1
1.131421614E1,1.288780272E-1,-9.799766541E-2,6.727123260E-2,1.753240059E-1
1.132222200E1,9.948037565E-2,-3.733539581E-2,-2.617025375E-2,1.094310701E-1
1.133022466E1,7.980389893E-2,4.282474518E-2,1.156520844E-2,9.130375201E-2
1.133822774E1,4.852290452E-2,8.974170685E-2,7.045650482E-2,1.239845365E-1
1.134623165E1,1.300473511E-2,1.200342178E-1,8.607435226E-2,1.482772090E-1
1.135423516E1,-2.235446870E-2,1.404609680E-1,6.382751465E-2,1.558940584E-1
1.136223727E1,-3.911386430E-2,1.572198868E-1,5.185651779E-2,1.701090404E-1
1.137023989E1,-4.769670963E-2,1.612405777E-1,5.660724640E-2,1.774200675E-1
1.137823899E1,-3.759117424E-2,1.717386246E-1,3.248739243E-2,1.787811014E-1
1.138624102E1,-2.775807679E-2,1.417388916E-1,3.918027878E-2,1.496513230E-1
1.139424196E1,-3.965863585E-2,1.263685226E-1,3.110647202E-2,1.360493422E-1
1.140224286E1,-3.018499911E-2,1.065263748E-1,2.494621277E-2,1.134958864E-1
1.141024219E1,-2.054420114E-2,8.921241760E-2,1.835346222E-3,9.156575861E-2
1.141824329E1,-1.551556587E-2,7.925510406E-2,-7.162570953E-3,8.107654857E-2
1.142624430E1,-1.095743477E-2,5.982971191E-2,4.162788391E-4,6.082625332E-2
1.143424634E1,-2.026392519E-2,5.966854095E-2,-6.514072418E-3,6.335135818E-2
1.144224817E1,-3.158873320E-2,5.001163483E-2,-6.366729736E-3,5.949409156E-2
1.145024926E1,-1.922874153E-2,4.755020142E-2,-8.642673492E-3,5.201405541E-2
1.145824958E1,-2.874182165E-2,4.770278931E-2,-1.126050949E-2,5.681942884E-2
1.146625118E1,-2.147358656E-2,3.835296631E-2,2.192306519E-2,4.911909742E-2
1.147425239E1,-1.197069883E-2,2.912807465E-2,3.815221786E-2,4.947053761E-2
1.148225575E1,-5.161315203E-3,4.399585724E-2,7.090473175E-2,8.360475832E-2
1.149025645E1,1.350100338E-2,5.167198181E-2,8.451128006E-2,9.997213239E-2
1.149825587E1,1.052051783E-2,5.212116241E-2,5.747938156E-2,7.830182738E-2
1.150625337E1,5.597963929E-3,7.887458801E-2,-1.018810272E-2,7.972662837E-2
1.151425548E1,-9.033828974E-4,9.592723846E-2,-1.538181305E-2,9.715683894E-2
1.152225962E1,-3.334316611E-2,9.109592438E-2,-3.297805786E-3,9.706240100E-2
1.153026102E1,-4.688656330E-2,9.344959259E-2,3.749942780E-2,1.110737739E-1
1.153826083E1,-4.690410197E-2,1.011829376E-1,6.301546097E-2,1.280973457E-1
1.154626301E1,-6.088906527E-2,9.503746033E-2,1.069755554E-1,1.555100209E-1
1.155426739E1,-2.950812876E-2,8.878517151E-2,1.486964226E-1,1.756819923E-1
1.156226661E1,7.060140371E-3,6.756114960E-2,1.458497047E-1,1.608927932E-1
1.157026645E1,5.253449082E-2,3.835964203E-2,7.472515106E-2,9.907160574E-2
1.157826868E1,7.421763241E-2,3.020572662E-2,-1.240730286E-2,8.108380878E-2
1.158626782E1,5.521772802E-2,3.647422791E-2,-5.413246155E-2,8.549672615E-2
1.159426829E1,1.473756135E-2,4.811191559E-2,-2.250051498E-2,5.512009897E-2
1.160226684E1,-2.093377709E-2,6.510639191E-2,2.504396439E-2,7.283038818E-2
1.161026899E1,-3.777296841E-2,7.776927948E-2,6.471109390E-2,1.079925166E-1
1.161827008E1,-4.038022459E-2,8.338451385E-2,7.783222198E-2,1.210016300E-1
1.162627102E1,-1.444412768E-2,8.170890808E-2,6.956195831E-2,1.082767035E-1
1.163427286E1,-2.806574106E-3,7.508563995E-2,3.998279572E-2,8.511377173E-2
1.164227376E1,2.293108404E-2,6.823921204E-2,3.227186203E-2,7.889168368E-2
1.165027344E1,2.720102668E-2,6.158256531E-2,2.907133102E-2,7.333110179E-2
1.165827161E1,1.690582931E-2,6.226444244E-2,5.914831161E-2,8.752822759E-2
1.166626860E1,1.597614586E-2,6.780910492E-2,4.840421677E-2,8.483089147E-2
1.167426532E1,1.278437674E-2,7.098865509E-2,8.311176300E-2,1.100472380E-1
1.168226626E1,7.251873612E-3,6.451416016E-2,8.442068100E-2,1.064965629E-1
1.169026614E1,-2.989828587E-3,6.500911713E-2,7.647037506E-2,1.004133589E-1
1.169826739E1,-1.554709673E-2,6.298351288E-2,6.392669678E-2,9.107830517E-2
1.170626813E1,-2.086919546E-2,4.885387421E-2,4.439878464E-2,6.923493642E-2
1.171427137E1,-1.680031419E-2,5.868911743E-2,3.201198578E-2,6.893061943E-2
1.172227262E1,3.761112690E-3,4.944801331E-2,3.146934509E-2,5.873305431E-2
1.173027610E1,-1.168312132E-2,4.512786865E-2,4.030275345E-2,6.162249418E-2
1.173827872E1,1.107230783E-2,5.035877228E-2,4.917049408E-2,7.124843461E-2
1.174627934E1,2.651244402E-2,4.364109039E-2,5.560541153E-2,7.549447827E-2
1.175427895E1,8.554190397E-3,5.360317230E-2,5.019378662E-2,7.393166081E-2
1.176227969E1,1.251636446E-2,5.396842957E-2,5.440378189E-2,7.764677877E-2
1.177028009E1,1.872749627E-2,4.467201233E-2,5.634069443E-2,7.430061676E-2
1.177827911E1,3.470306098E-2,6.394386292E-2,3.697776794E-2,8.161173548E-2
1.178628063E1,5.335339904E-2,4.483985901E-2,3.448534012E-2,7.775883762E-2
1.179428161E1,6.266337633E-2,4.011154175E-2,4.156875610E-2,8.522673289E-2
1.180228301E1,7.429537177E-2,4.259395599E-2,3.902912140E-2,9.411333418E-2
1.181028270E1,6.470628083E-2,4.980087280E-2,5.335903168E-2,9.754084258E-2
1.181828391E1,6.978431344E-2,5.458259583E-2,6.774711609E-2,1.115292872E-1
1.182628071E1,4.121668637E-2,7.119369507E-2,5.360889435E-2,9.818997406E-2
1.183428219E1,7.242262363E-4,8.295917511E-2,2.519035339E-2,8.670238257E-2
1.184228192E1,-3.234599531E-2,8.998680115E-2,5.417108536E-2,1.099017483E-1
1.185028258E1,-6.733781099E-2,1.066493988E-1,5.196046829E-2,1.364124823E-1
1.185828399E1,-8.066372573E-2,1.114511490E-1,5.677318573E-2,1.488327581E-1
1.186628290E1,-9.033699334E-2,1.140623093E-1,4.208183289E-2,1.514657170E-1
1.187428364E1,-9.255875647E-2,1.143541336E-1,4.883861542E-2,1.550135530E-1
1.188228196E1,-9.675298631E-2,1.221456528E-1,5.274963379E-2,1.645090414E-1
1.189028040E1,-8.912323415E-2,1.155595779E-1,2.554702759E-2,1.481540331E-1
1.189828110E1,-8.640842140E-2,8.980178833E-2,-1.634597778E-3,1.246332555E-1
1.190627985E1,-1.077329367E-1,8.065605164E-2,-1.184129715E-2,1.350999654E-1
1.191427934E1,-9.521073103E-2,7.627391815E-2,9.127140045E-3,1.223360069E-1
1.192227946E1,-7.055734098E-2,6.460380554E-2,3.744316101E-2,1.027325672E-1
1.193027946E1,-5.122661591E-2,6.011390686E-2,7.292079926E-2,1.074955392E-1
1.193827571E1,1.119077206E-3,5.563354492E-2,4.850721359E-2,7.381932962E-2
1.194627329E1,4.592910409E-2,4.655265808E-2,3.098440170E-2,7.236481000E-2
1.195427130E1,7.849048078E-2,4.488945007E-2,3.225374222E-2,9.600063639E-2
1.196227067E1,1.061249226E-1,2.182483673E-2,7.160806656E-2,1.298712358E-1
1.197027040E1,1.126198322E-1,1.091957092E-2,1.681613922E-1,2.026837869E-1
1.197826712E1,1.303939819E-1,3.528594971E-5,1.042447090E-1,1.669417597E-1
1.198626528E1,1.270318031E-1,-6.312370300E-3,1.221208572E-1,1.763247821E-1
1.199426352E1,9.664514661E-2,-2.057266235E-2,5.735301971E-2,1.142492349E-1
1.200225891E1,9.240736067E-2,-9.623527527E-3,3.824234009E-3,9.298579114E-2
1.201025563E1,9.150953591E-2,4.685306549E-2,7.636547089E-3,1.030898722E-1
1.201825622E1,3.857201338E-2,1.088733673E-1,-4.710197449E-2,1.247389527E-1
1.202625438E1,-4.470568895E-2,8.756256104E-2,-4.503631592E-2,1.081391255E-1
1.203425282E1,-1.067377925E-1,4.697799683E-2,2.423191071E-2,1.191095044E-1
1.204225153E1,-1.218593866E-1,1.578140259E-2,1.200728416E-1,1.718029396E-1
1.205024653E1,-1.159951389E-1,-1.819515228E-2,2.140698433E-1,2.441553473E-1
1.205824239E1,-8.356557786E-2,-2.653217316E-2,1.702446938E-1,1.914952160E-1
1.206624149E1,-3.894786537E-2,1.477909088E-2,2.441072464E-2,4.828292888E-2
1.207424282E1,-3.456279635E-2,5.131816864E-2,-5.438566208E-2,8.237682662E-2
1.208224219E1,-3.964667022E-2,9.307670593E-2,-1.889514923E-2,1.029182118E-1
1.209024067E1,-4.724222422E-2,1.279153824E-1,9.018898010E-3,1.366583818E-1
1.209823958E1,-7.410013676E-2,1.507854462E-1,1.537799835E-2,1.687114812E-1
1.210623895E1,-8.185380697E-2,1.614160538E-1,-6.594657898E-3,1.811040520E-1
1.211423798E1,-4.914689064E-2,1.695070267E-1,-2.836036682E-2,1.787522290E-1
1.212223622E1,-2.381283045E-2,1.586027145E-1,-7.274627686E-3,1.605452963E-1
1.213023497E1,1.586858928E-2,1.527538300E-1,1.580905914E-2,1.543874057E-1
1.213823094E1,4.833821952E-2,1.160173416E-1,4.332685471E-2,1.329429327E-1
1.214622442E1,4.798808694E-2,9.612083435E-2,6.836223602E-2,1.273399647E-1
1.215422235E1,3.099778295E-2,6.689262390E-2,9.064149857E-2,1.168390643E-1
1.216222266E1,4.527267814E-2,4.248237610E-2,7.457542419E-2,9.703536241E-2
1.217022208E1,3.812047839E-2,3.235721588E-2,5.624151230E-2,7.525468755E-2
1.217822298E1,3.845599294E-2,2.221107483E-2,1.879692078E-2,4.822364014E-2
1.218622430E1,3.176380694E-2,1.217556000E-2,2.907752991E-2,4.475138476E-2
1.219422212E1,3.437876701E-3,1.905822754E-2,1.996612549E-2,2.781512538E-2
1.220222208E1,-1.241436601E-2,2.839469910E-2,3.601551056E-3,3.119850301E-2
1.221022419E1,-4.762041569E-2,4.733562469E-2,3.267812729E-2,7.467412777E-2
1.221822368E1,-5.171556771E-2,5.914783478E-2,4.730749130E-2,9.171131356E-2
1.222622286E1,-5.560146272E-2,8.528804779E-2,7.397460938E-2,1.258483873E-1
1.223422051E1,-5.009937286E-2,8.017444611E-2,7.449150085E-2,1.203614252E-1
1.224222274E1,-3.969898820E-2,1.038465500E-1,6.056261063E-2,1.266015222E-1
1.225022188E1,-3.899200261E-2,1.084079742E-1,3.219985962E-2,1.196223061E-1
1.225822376E1,-2.603109181E-2,1.274986267E-1,-2.273225784E-2,1.320994818E-1
1.226622438E1,8.682191372E-3,1.371564865E-1,-2.280235291E-2,1.393098329E-1
1.227422551E1,1.523409784E-2,1.155376434E-1,8.504867554E-3,1.168475826E-1
1.228222571E1,-1.972466707E-3,9.859180450E-2,2.562427521E-2,1.018863976E-1
1.229022727E1,-7.990121841E-3,1.059265137E-1,5.657243729E-2,1.203524366E-1
1.229822790E1,-4.548105597E-2,9.465885162E-2,1.345682144E-1,1.706968921E-1
1.230623005E1,-2.304273844E-2,3.774833679E-2,1.936402321E-1,1.986263935E-1
1.231423126E1,3.013238311E-2,-9.107589722E-4,1.223611832E-1,1.260200347E-1
1.232223485E1,6.390607357E-2,-1.855850220E-2,-7.996559143E-4,6.655106079E-2
1.233023524E1,7.149286568E-2,-7.495880127E-3,-1.379060745E-2,7.319562088E-2
1.233823801E1,5.732698739E-2,-1.270103455E-2,3.232860565E-2,6.702863944E-2
1.234624266E1,2.851648629E-2,-2.690505981E-2,1.158814430E-1,1.223338918E-1
1.235424704E1,1.181931794E-2,-2.411460876E-2,1.440205574E-1,1.465030088E-1
1.236224680E1,3.575111926E-2,-2.878093719E-2,1.246857643E-1,1.328646857E-1
1.237024747E1,7.161328197E-2,2.034187317E-3,8.205175400E-2,1.089269958E-1
1.237825153E1,9.527648985E-2,3.964138031E-2,5.674743652E-2,1.177680776E-1
1.238625344E1,1.048947871E-1,7.721805573E-2,5.065917969E-2,1.397565633E-1
1.239425352E1,8.835603297E-2,1.268386841E-1,8.277511597E-2,1.753469708E-1
1.240225497E1,6.436024606E-2,1.790227890E-1,8.589649200E-2,2.087333409E-1
1.241025157E1,3.821429610E-2,2.120647430E-1,8.661794662E-2,2.322379305E-1
1.241824977E1,4.601940513E-3,1.997623444E-1,1.038689613E-1,2.251997629E-1
1.242624751E1,-1.433305442E-2,1.972455978E-1,1.136379242E-1,2.280895441E-1
1.243424473E1,-4.289630055E-2,1.613483429E-1,1.088337898E-1,1.992941900E-1
1.244224188E1,-6.169804931E-2,1.159639359E-1,1.015067101E-1,1.660057104E-1
1.245023962E1,-1.065869778E-1,7.300376892E-2,9.175443649E-2,1.584588613E-1
1.245823700E1,-1.347293705E-1,2.990818024E-2,6.305122375E-2,1.517298894E-1
1.246623801E1,-1.510609239E-1,8.315086365E-3,3.201341629E-2,1.546395882E-1
1.247423864E1,-1.432636976E-1,3.531455994E-3,3.203392029E-2,1.468438977E-1
1.248223708E1,-9.779840708E-2,1.310825348E-2,2.245473862E-2,1.011957016E-1
1.249023501E1,-5.961130559E-2,3.476333618E-2,3.904867172E-2,7.928931870E-2
1.249823114E1,-2.880612016E-2,4.905986786E-2,4.153156281E-2,7.043815658E-2
1.250622731E1,-5.918294191E-4,5.840396881E-2,3.467512131E-2,6.792450127E-2
1.251422294E1,3.204524517E-2,6.281566620E-2,3.280401230E-2,7.777408875E-2
1.252221942E1,3.105622530E-2,8.630466461E-2,3.583288193E-2,9.847324353E-2
1.253021766E1,3.981967270E-2,9.541606903E-2,4.846429825E-2,1.141867802E-1
1.253821587E1,6.055645645E-2,9.245300293E-2,2.773332596E-2,1.139463889E-1
1.254621481E1,3.616203368E-2,1.016006470E-1,3.553628922E-2,1.135482805E-1
1.255421290E1,2.384527028E-2,1.108579636E-1,4.557609558E-2,1.222099239E-1
1.256221071E1,1.818746328E-3,1.059846878E-1,7.920122147E-2,1.323211826E-1
1.257021126E1,-5.350723863E-3,1.106987000E-1,7.931232452E-2,1.362838114E-1
1.257820762E1,-4.641132057E-2,9.643840790E-2,8.871984482E-2,1.390165028E-1
1.258620958E1,-6.331834197E-2,8.697795868E-2,9.571886063E-2,1.440016597E-1
1.259421325E1,-6.371289492E-2,7.755088806E-2,9.787273407E-2,1.401875362E-1
1.260221415E1,-6.638970971E-2,7.043361664E-2,7.860755920E-2,1.246901611E-1
1.261021477E1,-5.717794597E-2,7.025051117E-2,4.295301437E-2,1.002467619E-1
1.261821626E1,-5.271247029E-2,6.989765167E-2,1.952695847E-2,8.969720364E-2
1.262621641E1,-5.558158457E-2,7.669544220E-2,9.288787842E-4,9.472257499E-2
1.263421450E1,-6.517215073E-2,8.364391327E-2,1.324939728E-2,1.068609376E-1
1.264221118E1,-5.565816164E-2,9.060192108E-2,2.076673508E-2,1.083411111E-1
1.265020872E1,-6.800065935E-2,1.001615524E-1,6.387186050E-2,1.368796582E-1
1.265820856E1,-4.446077347E-2,9.786701202E-2,3.018331528E-2,1.116501005E-1
1.266620411E1,-2.099105716E-2,9.565353394E-2,4.426002502E-2,1.074670780E-1
1.267419966E1,3.717541695E-4,9.347915649E-2,8.010387421E-3,9.382247709E-2
1.268219516E1,-1.404663920E-2,7.451629639E-2,2.448081970E-2,7.968247633E-2
1.269018907E1,-3.083880246E-2,6.056690216E-2,8.371162415E-2,1.078286483E-1
1.269818778E1,-7.235214114E-3,6.610584259E-2,1.113061905E-1,1.296587783E-1
1.270618594E1,6.323650479E-3,7.409286499E-2,6.457901001E-2,9.848954123E-2
1.271418384E1,8.980587125E-3,7.682704926E-2,1.619768143E-2,7.902791485E-2
1.272217923E1,3.622895479E-2,8.128166199E-2,-3.354454041E-2,9.510248121E-2
1.273017665E1,8.353753388E-2,1.048946381E-1,-4.344940186E-3,1.341651339E-1
1.273817399E1,9.629997611E-2,1.173896790E-1,-2.195692062E-2,1.534148900E-1
1.274617145E1,5.464959145E-2,1.087875366E-1,-9.288597107E-2,1.531310210E-1
1.275416798E1,2.371084690E-2,2.332782745E-2,-5.087566376E-2,6.078424925E-2
1.276216446E1,1.115180552E-2,-4.546070099E-2,9.178972244E-2,1.030358736E-1
1.277015962E1,2.219781280E-2,-7.394027710E-2,2.398171425E-1,2.519368359E-1
1.277815590E1,5.011485517E-2,-9.115886688E-2,2.620191574E-1,2.819139524E-1
1.278615360E1,9.076777101E-2,-7.357501984E-2,9.676694870E-2,1.517099672E-1
1.279415102E1,7.170563936E-2,-3.734588623E-3,-3.912067413E-2,8.176841085E-2
1.280214934E1,5.102875829E-2,7.108783722E-2,-7.231569290E-2,1.135208096E-1
1.281014485E1,2.361118793E-2,1.225337982E-1,-1.775312424E-2,1.260444101E-1
