"Time (s)","Gyroscope x (rad/s)","Gyroscope y (rad/s)","Gyroscope z (rad/s)","Absolute (rad/s)"
1.148417600E-2,-7.330382615E-2,1.185078546E-1,3.237585723E-2,1.430585848E-1
1.348331700E-2,-7.330382615E-2,1.185078546E-1,3.237585723E-2,1.430585848E-1
1.548284800E-2,-7.330382615E-2,1.185078546E-1,3.237585723E-2,1.430585848E-1
1.748230100E-2,-7.330382615E-2,1.185078546E-1,3.237585723E-2,1.430585848E-1
1.948210600E-2,-7.330382615E-2,1.185078546E-1,3.237585723E-2,1.430585848E-1
2.148171500E-2,-7.330382615E-2,1.185078546E-1,3.237585723E-2,1.430585848E-1
2.348159800E-2,-7.330382615E-2,1.185078546E-1,3.237585723E-2,1.430585848E-1
2.548085600E-2,-7.330382615E-2,1.185078546E-1,3.237585723E-2,1.430585848E-1
2.747909800E-2,-7.330382615E-2,1.185078546E-1,3.237585723E-2,1.430585848E-1
2.947820000E-2,-7.330382615E-2,1.185078546E-1,3.237585723E-2,1.430585848E-1
3.147777000E-2,-7.330382615E-2,1.185078546E-1,3.237585723E-2,1.430585848E-1
3.347640300E-2,-7.330382615E-2,1.185078546E-1,3.237585723E-2,1.430585848E-1
3.547507500E-2,-7.330382615E-2,1.185078546E-1,3.237585723E-2,1.430585848E-1
3.747374600E-2,-7.330382615E-2,1.185078546E-1,3.237585723E-2,1.430585848E-1
3.947304300E-2,-7.330382615E-2,1.185078546E-1,3.237585723E-2,1.430585848E-1
4.147187100E-2,-7.330382615E-2,1.185078546E-1,3.237585723E-2,1.430585848E-1
4.347081700E-2,-7.330382615E-2,1.185078546E-1,3.237585723E-2,1.430585848E-1
4.547109000E-2,-7.330382615E-2,1.185078546E-1,3.237585723E-2,1.430585848E-1
4.747070000E-2,-7.330382615E-2,1.185078546E-1,3.237585723E-2,1.430585848E-1
4.946945000E-2,-7.330382615E-2,1.185078546E-1,3.237585723E-2,1.430585848E-1
5.146843400E-2,-7.330382615E-2,1.185078546E-1,3.237585723E-2,1.430585848E-1
5.346773100E-2,-7.330382615E-2,1.185078546E-1,3.237585723E-2,1.430585848E-1
5.546820000E-2,-7.330382615E-2,1.185078546E-1,3.237585723E-2,1.430585848E-1
5.746843400E-2,-7.330382615E-2,1.185078546E-1,3.237585723E-2,1.430585848E-1
5.946913700E-2,-7.330382615E-2,1.185078546E-1,3.237585723E-2,1.430585848E-1
6.146902000E-2,-7.330382615E-2,1.185078546E-1,3.237585723E-2,1.430585848E-1
6.346909800E-2,-7.330382615E-2,1.185078546E-1,3.237585723E-2,1.430585848E-1
6.546909800E-2,-7.330382615E-2,1.185078546E-1,3.237585723E-2,1.430585848E-1
6.746839500E-2,-7.330382615E-2,1.185078546E-1,3.237585723E-2,1.430585848E-1
6.946839500E-2,-7.330382615E-2,1.185078546E-1,3.237585723E-2,1.430585848E-1
7.146862900E-2,-7.330382615E-2,1.185078546E-1,3.237585723E-2,1.430585848E-1
7.346905900E-2,-7.330382615E-2,1.185078546E-1,3.237585723E-2,1.430585848E-1
7.546847300E-2,3.481931984E-2,6.108652451E-4,7.941247895E-3,3.571864512E-2
7.746839500E-2,3.420845419E-2,0.000000000E0,1.160643995E-2,3.612378422E-2
7.946812100E-2,3.176499158E-2,3.054326167E-3,1.160643995E-2,3.395663480E-2
8.146777000E-2,3.176499158E-2,7.941247895E-3,1.038470957E-2,3.434996799E-2
8.346691100E-2,3.176499158E-2,1.466076635E-2,6.719517522E-3,3.562449545E-2
8.546612900E-2,2.687807009E-2,2.321287990E-2,7.330383174E-3,3.626296957E-2
8.746616800E-2,2.504547499E-2,3.298672289E-2,7.941247895E-3,4.217182854E-2
8.946581700E-2,2.443460934E-2,4.276056588E-2,1.038470957E-2,5.033247779E-2
9.146511400E-2,2.443460934E-2,5.314527452E-2,7.941247895E-3,5.902993948E-2
9.346437100E-2,1.832595654E-2,6.230825558E-2,8.552113548E-3,6.550799984E-2
9.546390300E-2,1.954768784E-2,7.391469181E-2,5.497787148E-3,7.665324147E-2
9.746452800E-2,1.466076635E-2,8.552113175E-2,4.276056774E-3,8.687397026E-2
9.946445000E-2,1.038470957E-2,9.468411654E-2,4.276056774E-3,9.534783049E-2
1.014655430E-1,9.162978269E-3,9.834930301E-2,3.665191587E-3,9.884320514E-2
1.034660900E-1,7.330383174E-3,1.093448773E-1,4.886921961E-3,1.096992193E-1
1.054671840E-1,6.108652335E-3,1.136209369E-1,1.221730490E-3,1.137915882E-1
1.074676530E-1,1.221730490E-3,1.221730486E-1,-6.108652451E-4,1.221806841E-1
1.094676140E-1,0.000000000E0,1.288925707E-1,2.443460980E-3,1.289157294E-1
1.114674570E-1,-2.443460980E-3,1.282816976E-1,3.665191587E-3,1.283573063E-1
1.134672230E-1,-4.886921961E-3,1.295034289E-1,9.162978269E-3,1.299191298E-1
1.154670280E-1,-5.497787148E-3,1.252273768E-1,6.108652335E-3,1.254967617E-1
1.174673790E-1,-4.886921961E-3,1.203404516E-1,1.221730490E-3,1.204458340E-1
1.194684340E-1,-6.719517522E-3,1.154535338E-1,-3.054326167E-3,1.156892359E-1
1.214687460E-1,-6.108652335E-3,1.014036313E-1,-6.108652335E-3,1.017709571E-1
1.234684730E-1,-4.276056774E-3,9.590584040E-2,-6.719517522E-3,9.623599534E-2
1.254683170E-1,-5.497787148E-3,9.529497474E-2,-5.497787148E-3,9.561162868E-2
1.274685510E-1,-1.832595794E-3,8.735372871E-2,-3.054326167E-3,8.742631889E-2
1.294683560E-1,-1.832595794E-3,8.429940045E-2,-4.886921961E-3,8.446081535E-2
1.314681210E-1,6.108652451E-4,7.696902007E-2,-6.108652335E-3,7.721346282E-2
1.334687860E-1,1.221730490E-3,7.819075137E-2,-1.038470957E-2,7.888680763E-2
1.354686680E-1,6.108652451E-4,7.819075137E-2,-1.038470957E-2,7.887971190E-2
1.374675360E-1,3.054326167E-3,8.063421398E-2,-9.162978269E-3,8.121062458E-2
1.394665980E-1,3.054326167E-3,8.368854225E-2,-5.497787148E-3,8.392452964E-2
1.414660510E-1,3.054326167E-3,8.674286306E-2,-3.665191587E-3,8.687397095E-2
1.434661680E-1,4.886921961E-3,9.285151958E-2,-9.162978269E-3,9.343043865E-2
1.454662070E-1,1.832595794E-3,1.001819000E-1,-1.771509275E-2,1.017526216E-1
1.474667540E-1,1.221730490E-3,1.044579595E-1,-1.649336144E-2,1.057591079E-1
1.494669110E-1,1.221730490E-3,1.069014147E-1,-1.649336144E-2,1.081731763E-1
1.514670280E-1,3.054326167E-3,1.111774743E-1,-1.160643995E-2,1.118233837E-1
1.534669500E-1,0.000000000E0,1.172861308E-1,-1.221730467E-2,1.179207319E-1
1.554668710E-1,0.000000000E0,1.197295859E-1,-1.343903504E-2,1.204814567E-1
1.574677700E-1,-1.832595794E-3,1.221730486E-1,-1.649336144E-2,1.232949438E-1
1.594679650E-1,-1.221730490E-3,1.270599663E-1,-1.649336144E-2,1.281318018E-1
1.614682390E-1,-6.108652335E-3,1.276708394E-1,-1.404990070E-2,1.285867745E-1
1.634687860E-1,-7.941247895E-3,1.307251602E-1,-1.343903504E-2,1.316538590E-1
1.654694890E-1,-7.330383174E-3,1.282816976E-1,-1.527163107E-2,1.293953291E-1
1.674703090E-1,-1.282817032E-2,1.288925707E-1,-1.649336144E-2,1.305752186E-1
1.694713250E-1,-1.099557430E-2,1.270599663E-1,-1.588249579E-2,1.285200038E-1
1.714723400E-1,-1.466076635E-2,1.185078546E-1,-1.893682219E-2,1.209034860E-1
1.734723010E-1,-1.343903504E-2,1.117883399E-1,-1.771509275E-2,1.139783537E-1
1.754726530E-1,-1.710422710E-2,9.773843735E-2,-1.649336144E-2,1.005852260E-1
1.774728870E-1,-1.466076635E-2,8.246681094E-2,-1.527163107E-2,8.514068177E-2
1.794737070E-1,-1.893682219E-2,6.658431143E-2,-9.773843922E-3,6.991138525E-2
1.814737860E-1,-2.138028294E-2,5.192354694E-2,-9.773843922E-3,5.699736178E-2
1.834738640E-1,-2.382374369E-2,4.214970022E-2,-6.719517522E-3,4.888067008E-2
1.854735510E-1,-2.932153270E-2,3.176499158E-2,-4.886921961E-3,4.350458569E-2
1.874737460E-1,-2.932153270E-2,1.832595654E-2,-6.108652451E-4,3.458274308E-2
1.894739810E-1,-2.871066704E-2,1.038470957E-2,1.221730490E-3,3.055547775E-2
1.914735510E-1,-3.298672289E-2,6.108652451E-4,1.221730490E-3,3.301499157E-2
1.934725360E-1,-3.237585723E-2,-3.054326167E-3,1.832595794E-3,3.257120580E-2
1.954711290E-1,-3.359758854E-2,-8.552113548E-3,4.276056774E-3,3.493166562E-2
1.974711290E-1,-3.481931984E-2,-1.221730467E-2,5.497787148E-3,3.730781730E-2
1.994707780E-1,-3.054326214E-2,-1.527163107E-2,6.719517522E-3,3.480323970E-2
2.014708560E-1,-3.115412779E-2,-2.321287990E-2,7.330383174E-3,3.953671697E-2
2.034701530E-1,-2.871066704E-2,-2.993239649E-2,7.330383174E-3,4.211870462E-2
2.054697230E-1,-2.932153270E-2,-3.848451003E-2,6.108652335E-3,4.876602737E-2
2.074691760E-1,-2.993239649E-2,-4.398229718E-2,7.941247895E-3,5.379083791E-2
2.094690200E-1,-3.298672289E-2,-5.070181563E-2,8.552113548E-3,6.108957883E-2
2.114685900E-1,-3.237585723E-2,-4.948008433E-2,1.282817032E-2,6.050650238E-2
2.134689810E-1,-3.481931984E-2,-4.520402849E-2,1.649336144E-2,5.939545603E-2
2.154692930E-1,-3.176499158E-2,-4.214970022E-2,1.710422710E-2,5.548122659E-2
2.174690980E-1,-3.298672289E-2,-3.481931984E-2,2.015855350E-2,5.202764842E-2
2.194685900E-1,-3.054326214E-2,-3.176499158E-2,2.199114859E-2,4.924952963E-2
2.214681210E-1,-2.809980139E-2,-1.649336144E-2,2.260201424E-2,3.965451876E-2
2.234677700E-1,-2.871066704E-2,-4.886921961E-3,2.382374369E-2,3.762652218E-2
2.254667540E-1,-2.871066704E-2,8.552113548E-3,2.443460934E-2,3.865864951E-2
2.274658170E-1,-2.748893574E-2,2.260201424E-2,2.565634064E-2,4.387186400E-2
2.294653090E-1,-2.626720630E-2,3.909537569E-2,2.687807009E-2,5.422956000E-2
2.314648010E-1,-2.748893574E-2,4.948008433E-2,2.809980139E-2,6.319429699E-2
2.334646840E-1,-2.748893574E-2,5.742133409E-2,2.748893574E-2,6.934329661E-2
2.354639030E-1,-2.871066704E-2,6.352998316E-2,2.809980139E-2,7.516621582E-2
2.374641760E-1,-2.626720630E-2,6.414084882E-2,3.054326214E-2,7.574236249E-2
2.394651140E-1,-2.565634064E-2,6.291911751E-2,3.298672289E-2,7.553268862E-2
2.414643710E-1,-2.626720630E-2,6.230825558E-2,3.481931984E-2,7.605701726E-2
2.434642150E-1,-2.321287990E-2,5.986479297E-2,3.420845419E-2,7.275197296E-2
2.454638640E-1,-2.443460934E-2,5.742133409E-2,3.481931984E-2,7.146079188E-2
2.474639810E-1,-2.565634064E-2,5.314527452E-2,3.604105115E-2,6.914929781E-2
2.494640590E-1,-2.443460934E-2,5.314527452E-2,3.359758854E-2,6.745567651E-2
2.514634730E-1,-2.260201424E-2,5.192354694E-2,2.748893574E-2,6.294876776E-2
2.534634340E-1,-2.260201424E-2,5.253441259E-2,2.809980139E-2,6.372059630E-2
2.554630040E-1,-1.954768784E-2,5.803219974E-2,2.871066704E-2,6.763246786E-2
2.574623400E-1,-2.199114859E-2,6.169738993E-2,3.176499158E-2,7.279555777E-2
2.594608950E-1,-2.015855350E-2,6.902777404E-2,3.543018550E-2,8.016544712E-2
2.614593710E-1,-2.015855350E-2,7.880161703E-2,3.665191308E-2,8.921560882E-2
2.634572620E-1,-1.710422710E-2,9.101892263E-2,3.176499158E-2,9.790818940E-2
2.654556610E-1,-1.404990070E-2,1.001819000E-1,2.687807009E-2,1.046720757E-1
2.674539810E-1,-1.404990070E-2,1.081231460E-1,2.015855350E-2,1.108800329E-1
2.694530820E-1,-1.221730467E-2,1.136209369E-1,1.466076635E-2,1.152124902E-1
2.714524960E-1,-7.330383174E-3,1.160643995E-1,1.282817032E-2,1.170010312E-1
2.734505820E-1,-3.665191587E-3,1.215621829E-1,1.282817032E-2,1.222921089E-1
2.754495280E-1,1.832595794E-3,1.233947799E-1,9.773843922E-3,1.237948227E-1
2.774480820E-1,3.665191587E-3,1.325577646E-1,9.773843922E-3,1.329681263E-1
2.794474180E-1,4.886921961E-3,1.435533315E-1,6.719517522E-3,1.437935774E-1
2.814462070E-1,7.941247895E-3,1.527163088E-1,7.941247895E-3,1.531286969E-1
2.834451140E-1,9.162978269E-3,1.655444801E-1,9.162978269E-3,1.660508814E-1
2.854442930E-1,9.773843922E-3,1.753183305E-1,1.160643995E-2,1.759737324E-1
2.874435120E-1,7.941247895E-3,1.881465018E-1,9.773843922E-3,1.885674881E-1
2.894428870E-1,7.941247895E-3,1.924225539E-1,7.330383174E-3,1.927258083E-1
2.914421060E-1,8.552113548E-3,1.973094791E-1,1.221730490E-3,1.974985109E-1
2.934408560E-1,5.497787148E-3,2.021963894E-1,-1.221730490E-3,2.022748086E-1
2.954406210E-1,1.832595794E-3,2.046398520E-1,7.941247895E-3,2.048020773E-1
2.974405820E-1,-2.443460980E-3,2.046398520E-1,1.771509275E-2,2.054197266E-1
2.994405820E-1,-2.443460980E-3,2.064724565E-1,2.015855350E-2,2.074685833E-1
3.014398400E-1,-4.276056774E-3,2.113593817E-1,2.015855350E-2,2.123615788E-1
3.034386680E-1,-3.054326167E-3,2.131919712E-1,1.954768784E-2,2.141080512E-1
3.054383950E-1,-1.832595794E-3,2.138028294E-1,2.321287990E-2,2.150670734E-1
3.074387860E-1,-3.054326167E-3,2.138028294E-1,2.565634064E-2,2.153583678E-1
3.094385120E-1,1.832595794E-3,2.131919712E-1,2.626720630E-2,2.148118738E-1
3.114373790E-1,9.773843922E-3,2.577851415E-1,3.481931984E-2,2.603096084E-1
3.134365200E-1,1.649336144E-2,2.889392674E-1,4.153883830E-2,2.923754543E-1
3.154351530E-1,1.588249579E-2,3.371976018E-1,5.070181563E-2,3.413578041E-1
3.174358560E-1,1.893682219E-2,3.744603992E-1,5.803219974E-2,3.794033869E-1
3.194361290E-1,1.588249579E-2,4.025602043E-1,6.658431143E-2,4.083386367E-1
3.214369890E-1,1.649336144E-2,4.263839424E-1,7.269296050E-2,4.328505097E-1
3.234370670E-1,1.160643995E-2,4.361577928E-1,7.391469181E-2,4.425287689E-1
3.254371060E-1,7.330383174E-3,4.324925840E-1,7.635815442E-2,4.392426863E-1
3.274368710E-1,7.330383174E-3,4.166100919E-1,7.513642311E-2,4.233948338E-1
3.294362460E-1,1.832595794E-3,3.878994286E-1,7.513642311E-2,3.951136636E-1
3.314359340E-1,1.832595794E-3,3.512475193E-1,7.696902007E-2,3.595864406E-1
3.334358560E-1,0.000000000E0,2.999348342E-1,8.429940045E-2,3.115562449E-1
3.354350750E-1,-3.665191587E-3,2.443460971E-1,8.796459436E-2,2.597233502E-1
3.374352700E-1,-4.886921961E-3,2.168571651E-1,8.857546002E-2,2.343000729E-1
3.394351140E-1,-4.886921961E-3,1.563815027E-1,8.857546002E-2,1.797906241E-1
3.414353870E-1,-3.054326167E-3,9.285151958E-2,8.979719132E-2,1.292063047E-1
3.434345670E-1,-6.719517522E-3,3.359758854E-2,9.285151958E-2,9.897148357E-2
3.454341370E-1,-9.162978269E-3,-2.504547499E-2,9.590584040E-2,9.954479499E-2
3.474333170E-1,-4.886921961E-3,-7.513642311E-2,9.651670605E-2,1.224125755E-1
3.494335900E-1,-6.108652335E-3,-1.203404516E-1,9.834930301E-2,1.555368938E-1
3.514328090E-1,-4.276056774E-3,-1.521054506E-1,1.007927656E-1,1.825199561E-1
3.534326140E-1,-4.276056774E-3,-1.802052408E-1,1.038470939E-1,2.080298834E-1
3.554325360E-1,-6.108652335E-3,-2.015855312E-1,1.062905490E-1,2.279730748E-1
3.574322230E-1,-4.886921961E-3,-2.162462920E-1,1.075122803E-1,2.415475755E-1
3.594315200E-1,-3.665191587E-3,-2.174680233E-1,1.081231460E-1,2.428917238E-1
3.614306210E-1,-7.330383174E-3,-2.223549485E-1,1.069014147E-1,2.468265993E-1
3.634294890E-1,-3.665191587E-3,-2.272418737E-1,1.044579595E-1,2.501275037E-1
3.654273400E-1,-3.665191587E-3,-2.266310006E-1,1.020144969E-1,2.485598553E-1
3.674262070E-1,0.000000000E0,-2.235766798E-1,9.896016866E-2,2.444987663E-1
3.694260120E-1,4.276056774E-3,-2.254092693E-1,9.712757170E-2,2.454819516E-1
3.714251530E-1,1.038470957E-2,-2.168571651E-1,9.590584040E-2,2.373453233E-1
3.734249180E-1,1.954768784E-2,-2.119702399E-1,9.834930301E-2,2.344911088E-1
3.754246840E-1,2.443460934E-2,-2.009746730E-1,1.001819000E-1,2.258855516E-1
3.774251140E-1,3.115412779E-2,-1.918116808E-1,1.014036313E-1,2.191916901E-1
3.794251920E-1,3.359758854E-2,-1.777617931E-1,1.007927656E-1,2.070923336E-1
3.814255430E-1,3.970624134E-2,-1.667662114E-1,9.896016866E-2,1.979410767E-1
3.834256210E-1,4.398229718E-2,-1.600466967E-1,9.957103431E-2,1.935556211E-1
3.854254260E-1,4.398229718E-2,-1.478293836E-1,9.834930301E-2,1.829222636E-1
3.874266370E-1,4.886921868E-2,-1.386664063E-1,9.896016866E-2,1.772277849E-1
3.894278090E-1,5.192354694E-2,-1.276708394E-1,1.001819000E-1,1.703887058E-1
3.914293320E-1,5.375614017E-2,-1.191187203E-1,9.957103431E-2,1.642966311E-1
3.934296060E-1,5.314527452E-2,-1.136209369E-1,9.590584040E-2,1.578989162E-1
3.954297620E-1,5.314527452E-2,-1.062905490E-1,9.529497474E-2,1.523260753E-1
3.974296060E-1,5.497787148E-2,-1.044579595E-1,9.529497474E-2,1.517074945E-1
3.994288250E-1,5.558873713E-2,-1.020144969E-1,9.773843735E-2,1.518218279E-1
4.014285510E-1,5.131268129E-2,-9.957103431E-2,9.285151958E-2,1.454949718E-1
4.034293320E-1,5.070181563E-2,-9.896016866E-2,8.918632567E-2,1.425411862E-1
4.054298010E-1,5.070181563E-2,-1.056796908E-1,8.002334833E-2,1.419246541E-1
4.074310120E-1,4.948008433E-2,-1.081231460E-1,7.880161703E-2,1.426484781E-1
4.094321060E-1,4.642575979E-2,-1.117883399E-1,7.880161703E-2,1.444357260E-1
4.114326530E-1,4.642575979E-2,-1.166752651E-1,8.368854225E-2,1.509047407E-1
4.134336680E-1,3.787364438E-2,-1.240056455E-1,8.796459436E-2,1.566830652E-1
4.154346840E-1,3.298672289E-2,-1.282816976E-1,8.307767659E-2,1.563528643E-1
4.174353480E-1,2.809980139E-2,-1.374446750E-1,7.757988572E-2,1.603099379E-1
4.194359730E-1,2.199114859E-2,-1.533271819E-1,7.391469181E-2,1.716281358E-1
4.214357000E-1,1.160643995E-2,-1.643227488E-1,7.574728876E-2,1.813127877E-1
4.234354650E-1,2.443460980E-3,-1.808161139E-1,7.574728876E-2,1.960563422E-1
4.254363250E-1,-6.108652335E-3,-1.960877478E-1,7.208210230E-2,2.090061003E-1
4.274367150E-1,-7.330383174E-3,-2.138028294E-1,6.658431143E-2,2.240510096E-1
4.294367150E-1,-1.343903504E-2,-2.309070677E-1,6.108652428E-2,2.392284369E-1
4.314364810E-1,-1.343903504E-2,-2.364048511E-1,5.986479297E-2,2.442368824E-1
4.334359340E-1,-1.404990070E-2,-2.510656118E-1,5.742133409E-2,2.579312908E-1
4.354350360E-1,-1.771509275E-2,-2.638937831E-1,5.436700583E-2,2.700176376E-1
4.374349570E-1,-1.710422710E-2,-2.712241709E-1,5.131268129E-2,2.765648147E-1
4.394349180E-1,-1.466076635E-2,-2.828305960E-1,4.764748737E-2,2.871904719E-1
4.414345670E-1,-1.588249579E-2,-2.883284092E-1,4.642575979E-2,2.924737192E-1
4.434342930E-1,-1.771509275E-2,-2.883284092E-1,4.581489414E-2,2.924826501E-1
4.454335120E-1,-1.710422710E-2,-2.889392674E-1,4.092797264E-2,2.923243982E-1
4.474335510E-1,-1.832595654E-2,-2.877175212E-1,3.543018550E-2,2.904694661E-1
4.494321060E-1,-2.504547499E-2,-2.834414840E-1,3.420845419E-2,2.865947819E-1
4.514318320E-1,-2.443460934E-2,-2.797762752E-1,3.420845419E-2,2.829170066E-1
4.534319110E-1,-2.504547499E-2,-2.779437006E-1,3.726277873E-2,2.815466057E-1
4.554324960E-1,-3.115412779E-2,-2.706133127E-1,3.970624134E-2,2.752793677E-1
4.574324960E-1,-3.176499158E-2,-2.638937831E-1,3.726277873E-2,2.683979473E-1
4.594331210E-1,-3.054326214E-2,-2.547308207E-1,3.054326214E-2,2.583671278E-1
4.614327700E-1,-3.115412779E-2,-2.461786866E-1,2.748893574E-2,2.496601030E-1
4.634325360E-1,-2.871066704E-2,-2.394591719E-1,2.993239649E-2,2.430245785E-1
4.654324570E-1,-2.382374369E-2,-2.235766798E-1,3.115412779E-2,2.269904892E-1
4.674327700E-1,-2.199114859E-2,-2.119702399E-1,2.504547499E-2,2.145746234E-1
4.694329650E-1,-1.710422710E-2,-1.954768747E-1,1.832595654E-2,1.970776593E-1
4.714324180E-1,-1.466076635E-2,-1.789835095E-1,1.099557430E-2,1.799192525E-1
4.734311680E-1,-1.588249579E-2,-1.576032341E-1,1.099557430E-2,1.587826682E-1
4.754307780E-1,-1.221730467E-2,-1.350012124E-1,1.038470957E-2,1.359501087E-1
4.774301140E-1,-1.099557430E-2,-1.288925707E-1,1.221730467E-2,1.299363690E-1
4.794290590E-1,-1.466076635E-2,-1.069014147E-1,1.160643995E-2,1.085244672E-1
4.814273790E-1,-1.282817032E-2,-8.857546002E-2,7.330383174E-3,8.979926831E-2
4.834262460E-1,-1.343903504E-2,-7.147123665E-2,4.886921961E-3,7.288777220E-2
4.854248790E-1,-1.771509275E-2,-5.925392732E-2,5.497787148E-3,6.208927506E-2
4.874244890E-1,-1.954768784E-2,-4.825835302E-2,1.038470957E-2,5.309258827E-2
4.894237860E-1,-2.138028294E-2,-3.787364438E-2,7.330383174E-3,4.410514658E-2
4.914232780E-1,-2.443460934E-2,-2.687807009E-2,4.276056774E-3,3.657547603E-2
4.934226140E-1,-2.565634064E-2,-2.199114859E-2,3.054326167E-3,3.392915177E-2
4.954217930E-1,-3.115412779E-2,-9.773843922E-3,2.443460980E-3,3.274260535E-2
4.974211290E-1,-3.298672289E-2,-6.108652451E-4,4.886921961E-3,3.335234698E-2
4.994201140E-1,-3.787364438E-2,9.773843922E-3,8.552113548E-3,4.003847662E-2
5.014202310E-1,-4.092797264E-2,1.771509275E-2,8.552113548E-3,4.540993396E-2
5.034195670E-1,-4.520402849E-2,2.932153270E-2,6.719517522E-3,5.429832766E-2
5.054188250E-1,-4.703662544E-2,4.337143153E-2,7.330383174E-3,6.439922145E-2
5.074184730E-1,-4.764748737E-2,5.864306539E-2,1.038470957E-2,7.627014071E-2
5.094180040E-1,-5.375614017E-2,6.902777404E-2,1.221730467E-2,8.833922531E-2
5.114181210E-1,-5.619960278E-2,8.368854225E-2,1.160643995E-2,1.014735281E-1
5.134183170E-1,-6.108652428E-2,9.590584040E-2,1.160643995E-2,1.142987450E-1
5.154183560E-1,-6.536258012E-2,1.038470939E-1,1.038470957E-2,1.231435259E-1
5.174177310E-1,-6.841690838E-2,1.056796908E-1,9.773843922E-3,1.262719226E-1
5.194174960E-1,-7.208210230E-2,1.093448773E-1,9.773843922E-3,1.313303457E-1
5.214178090E-1,-7.086037099E-2,1.044579595E-1,9.162978269E-3,1.265567764E-1
5.234183950E-1,-7.269296050E-2,1.020144969E-1,9.162978269E-3,1.255993004E-1
5.254185120E-1,-7.269296050E-2,1.007927656E-1,1.160643995E-2,1.248124896E-1
5.274176920E-1,-7.269296050E-2,9.529497474E-2,1.160643995E-2,1.204163949E-1
5.294173010E-1,-7.452555746E-2,8.735372871E-2,1.221730467E-2,1.154729196E-1
5.314167540E-1,-7.147123665E-2,7.941248268E-2,6.719517522E-3,1.070496707E-1
5.334166370E-1,-7.208210230E-2,7.452555746E-2,5.497787148E-3,1.038273271E-1
5.354165590E-1,-7.330382615E-2,6.536258012E-2,2.443460980E-3,9.824300642E-2
5.374157780E-1,-7.147123665E-2,6.169738993E-2,6.108652335E-3,9.461512155E-2
5.394147620E-1,-7.208210230E-2,5.619960278E-2,8.552113548E-3,9.180067250E-2
5.414146450E-1,-7.269296050E-2,5.131268129E-2,1.099557430E-2,8.965578855E-2
5.434150360E-1,-7.391469181E-2,4.886921868E-2,1.038470957E-2,8.921560621E-2
5.454146060E-1,-7.024950534E-2,4.520402849E-2,5.497787148E-3,8.371751821E-2
5.474145280E-1,-7.086037099E-2,4.459316283E-2,5.497787148E-3,8.390451724E-2
5.494130430E-1,-6.841690838E-2,4.703662544E-2,4.276056774E-3,8.313604602E-2
5.514115590E-1,-6.352998316E-2,4.886921868E-2,4.886921961E-3,8.030031943E-2
5.534105040E-1,-6.780604273E-2,5.803219974E-2,4.886921961E-3,8.938275921E-2
5.554087860E-1,-6.841690838E-2,6.414084882E-2,3.665191587E-3,9.385283943E-2
5.574070670E-1,-6.658431143E-2,7.330382615E-2,4.886921961E-3,9.915040828E-2
5.594049180E-1,-7.024950534E-2,8.063421398E-2,2.443460980E-3,1.069712109E-1
5.614024960E-1,-7.391469181E-2,9.040805697E-2,6.108652335E-3,1.169372227E-1
5.633994890E-1,-7.880161703E-2,1.001819000E-1,1.038470957E-2,1.278825638E-1
5.653967150E-1,-7.757988572E-2,1.099557430E-1,1.221730467E-2,1.351227835E-1
5.673945280E-1,-8.307767659E-2,1.191187203E-1,1.404990070E-2,1.459060300E-1
5.693930430E-1,-8.674286306E-2,1.301143020E-1,1.649336144E-2,1.572453079E-1
5.713915200E-1,-8.918632567E-2,1.386664063E-1,1.588249579E-2,1.656346177E-1
5.733919890E-1,-9.224065393E-2,1.527163088E-1,2.199114859E-2,1.797615638E-1
5.753919890E-1,-9.957103431E-2,1.612684280E-1,2.932153270E-2,1.917854244E-1
5.773915590E-1,-1.050688252E-1,1.685988009E-1,3.054326214E-2,2.009922997E-1
5.793914030E-1,-1.136209369E-1,1.753183305E-1,3.115412779E-2,2.112269253E-1
5.813909730E-1,-1.209513173E-1,1.734857261E-1,3.237585723E-2,2.139502616E-1
5.833907390E-1,-1.319468915E-1,1.698205322E-1,3.970624134E-2,2.186906055E-1
5.853908560E-1,-1.337794960E-1,1.551597714E-1,4.703662544E-2,2.101997915E-1
5.873907780E-1,-1.429424733E-1,1.411098689E-1,5.314527452E-2,2.077714272E-1
5.893907000E-1,-1.453859210E-1,1.215621829E-1,5.925392732E-2,1.985584504E-1
5.913902700E-1,-1.484402567E-1,9.773843735E-2,5.925392732E-2,1.873455093E-1
5.933901530E-1,-1.472185254E-1,7.513642311E-2,6.047565863E-2,1.760002318E-1
5.953889810E-1,-1.533271819E-1,6.352998316E-2,6.047565863E-2,1.766425452E-1
5.973882390E-1,-1.508837193E-1,4.764748737E-2,6.291911751E-2,1.702791683E-1
5.993885120E-1,-1.514945775E-1,3.054326214E-2,6.658431143E-2,1.682764642E-1
6.013876920E-1,-1.514945775E-1,1.832595654E-2,6.658431143E-2,1.664929975E-1
6.033862860E-1,-1.502728462E-1,1.099557430E-2,6.597344577E-2,1.644850343E-1
6.053855820E-1,-1.484402567E-1,8.552113548E-3,7.024950534E-2,1.644464699E-1
6.073860510E-1,-1.496619880E-1,8.552113548E-3,7.269296050E-2,1.666016681E-1
6.093871840E-1,-1.459967941E-1,1.649336144E-2,7.452555746E-2,1.647457240E-1
6.113876530E-1,-1.496619880E-1,2.809980139E-2,7.696902007E-2,1.706239712E-1
6.133875360E-1,-1.466076523E-1,4.031710699E-2,7.757988572E-2,1.706983055E-1
6.153873010E-1,-1.472185254E-1,5.253441259E-2,7.757988572E-2,1.745044338E-1
6.173862460E-1,-1.441642046E-1,5.986479297E-2,7.757988572E-2,1.743150883E-1
6.193847620E-1,-1.392772794E-1,7.269296050E-2,7.757988572E-2,1.752171959E-1
6.213833950E-1,-1.343903542E-1,8.491026610E-2,7.513642311E-2,1.758294704E-1
6.233826920E-1,-1.288925707E-1,9.957103431E-2,7.269296050E-2,1.783590541E-1
6.253821450E-1,-1.209513173E-1,1.130100712E-1,6.963863969E-2,1.795829543E-1
6.273810120E-1,-1.154535338E-1,1.252273768E-1,6.658431143E-2,1.828794272E-1
6.293805040E-1,-1.062905490E-1,1.380555481E-1,6.536258012E-2,1.860894464E-1
6.313792930E-1,-9.896016866E-2,1.478293836E-1,6.475171447E-2,1.893130375E-1
6.333774960E-1,-9.162978828E-2,1.594358236E-1,6.414084882E-2,1.947558688E-1
6.353762070E-1,-8.735372871E-2,1.673770845E-1,6.230825558E-2,1.988167021E-1
6.373760510E-1,-8.124507964E-2,1.716531366E-1,5.925392732E-2,1.989386593E-1
6.393758560E-1,-7.880161703E-2,1.765400618E-1,5.681046844E-2,2.015031454E-1
6.413748400E-1,-7.819075137E-2,1.753183305E-1,5.497787148E-2,1.996819395E-1
6.433744500E-1,-7.452555746E-2,1.753183305E-1,5.253441259E-2,1.976118424E-1
6.453735120E-1,-7.208210230E-2,1.740965992E-1,5.131268129E-2,1.952906721E-1
6.473732780E-1,-6.658431143E-2,1.728748679E-1,4.581489414E-2,1.908355182E-1
6.493731210E-1,-6.414084882E-2,1.673770845E-1,4.581489414E-2,1.850084901E-1
6.513730430E-1,-5.925392732E-2,1.624901593E-1,4.642575979E-2,1.790793984E-1
6.533726530E-1,-6.047565863E-2,1.637118906E-1,4.153883830E-2,1.794000097E-1
6.553723010E-1,-5.619960278E-2,1.606575549E-1,3.970624134E-2,1.747736562E-1
6.573721450E-1,-5.497787148E-2,1.606575549E-1,3.726277873E-2,1.738445598E-1
6.593724570E-1,-5.436700583E-2,1.618792862E-1,3.848451003E-2,1.750477995E-1
6.613733170E-1,-5.253441259E-2,1.637118906E-1,3.359758854E-2,1.751863168E-1
6.633733560E-1,-5.375614017E-2,1.643227488E-1,3.237585723E-2,1.758973692E-1
6.653739420E-1,-4.886921868E-2,1.649336219E-1,2.748893574E-2,1.742037363E-1
6.673740590E-1,-4.948008433E-2,1.624901593E-1,2.565634064E-2,1.717835220E-1
6.693743710E-1,-5.009094998E-2,1.618792862E-1,2.626720630E-2,1.714758662E-1
6.713747230E-1,-5.009094998E-2,1.600466967E-1,2.809980139E-2,1.700401341E-1
6.733748790E-1,-5.009094998E-2,1.527163088E-1,2.748893574E-2,1.630552540E-1
6.753738250E-1,-4.703662544E-2,1.478293836E-1,2.748893574E-2,1.575487619E-1
6.773724960E-1,-4.703662544E-2,1.337794960E-1,2.626720630E-2,1.442198454E-1
6.793714420E-1,-4.642575979E-2,1.240056455E-1,2.443460934E-2,1.346469510E-1
6.813708170E-1,-4.886921868E-2,1.123992056E-1,2.626720630E-2,1.253465120E-1
6.833697620E-1,-4.886921868E-2,9.773843735E-2,2.199114859E-2,1.114657494E-1
6.853693320E-1,-4.764748737E-2,8.918632567E-2,1.710422710E-2,1.025526125E-1
6.873692930E-1,-5.131268129E-2,8.491026610E-2,1.404990070E-2,1.002005203E-1
6.893684730E-1,-4.886921868E-2,7.452555746E-2,7.941247895E-3,8.947246876E-2
6.913670280E-1,-5.131268129E-2,7.147123665E-2,6.108652335E-3,8.819549060E-2
6.933657000E-1,-4.948008433E-2,6.780604273E-2,6.108652335E-3,8.416206871E-2
6.953646060E-1,-5.192354694E-2,6.597344577E-2,3.054326167E-3,8.401118486E-2
6.973636290E-1,-4.886921868E-2,6.780604273E-2,-3.054326167E-3,8.363724573E-2
6.993618710E-1,-4.703662544E-2,7.696902007E-2,-1.038470957E-2,9.079931925E-2
7.013601530E-1,-4.337143153E-2,8.491026610E-2,-9.773843922E-3,9.584551313E-2
7.033576530E-1,-4.214970022E-2,9.468411654E-2,-6.719517522E-3,1.038596701E-1
7.053553870E-1,-4.276056588E-2,1.032362282E-1,-7.330383174E-3,1.119817812E-1
7.073537460E-1,-3.726277873E-2,1.160643995E-1,-1.282817032E-2,1.225725151E-1
7.093521450E-1,-3.604105115E-2,1.264491081E-1,-1.832595654E-2,1.327560733E-1
7.113505040E-1,-3.787364438E-2,1.337794960E-1,-2.015855350E-2,1.404910451E-1
7.133491370E-1,-3.909537569E-2,1.453859210E-1,-1.832595654E-2,1.516619765E-1
7.153472230E-1,-3.665191308E-2,1.588249654E-1,-1.527163107E-2,1.637130266E-1
7.173454260E-1,-3.665191308E-2,1.740965992E-1,-1.649336144E-2,1.786757386E-1
7.193439810E-1,-3.543018550E-2,1.838704348E-1,-2.321287990E-2,1.886861749E-1
7.213432780E-1,-3.787364438E-2,1.954768747E-1,-2.687807009E-2,2.009180234E-1
7.233426920E-1,-3.604105115E-2,2.046398520E-1,-2.565634064E-2,2.093673189E-1
7.253415980E-1,-3.543018550E-2,2.168571651E-1,-2.382374369E-2,2.210201323E-1
7.273401920E-1,-3.543018550E-2,2.223549485E-1,-2.138028294E-2,2.261728049E-1
7.293388250E-1,-3.665191308E-2,2.241875380E-1,-2.504547499E-2,2.285403482E-1
7.313380040E-1,-3.726277873E-2,2.254092693E-1,-2.748893574E-2,2.301162640E-1
7.333370280E-1,-3.665191308E-2,2.211332172E-1,-2.932153270E-2,2.260597593E-1
7.353353090E-1,-3.543018550E-2,2.180788964E-1,-3.115412779E-2,2.231239180E-1
7.373348010E-1,-3.359758854E-2,2.089159191E-1,-2.687807009E-2,2.133004685E-1
7.393343320E-1,-3.359758854E-2,1.991420686E-1,-2.504547499E-2,2.035034085E-1
7.413331610E-1,-2.993239649E-2,1.814269722E-1,-2.809980139E-2,1.860142291E-1
7.433314810E-1,-3.298672289E-2,1.710422635E-1,-3.054326214E-2,1.768515498E-1
7.453309730E-1,-3.115412779E-2,1.588249654E-1,-3.054326214E-2,1.647083488E-1
7.473304650E-1,-3.054326214E-2,1.411098689E-1,-3.176499158E-2,1.478306485E-1
7.493305040E-1,-3.115412779E-2,1.288925707E-1,-3.115412779E-2,1.362147354E-1
7.513297230E-1,-3.115412779E-2,1.178969890E-1,-3.176499158E-2,1.260130723E-1
7.533290980E-1,-3.176499158E-2,1.105666086E-1,-3.481931984E-2,1.201930724E-1
7.553288640E-1,-3.298672289E-2,9.957103431E-2,-3.481931984E-2,1.105210378E-1
7.573287460E-1,-3.115412779E-2,9.651670605E-2,-3.298672289E-2,1.066497919E-1
7.593280820E-1,-3.237585723E-2,9.224065393E-2,-3.054326214E-2,1.024178951E-1
7.613271060E-1,-3.237585723E-2,8.552113175E-2,-2.871066704E-2,9.584551377E-2
7.633259340E-1,-3.481931984E-2,8.368854225E-2,-2.993239649E-2,9.545734910E-2
7.653249570E-1,-3.298672289E-2,7.880161703E-2,-3.359758854E-2,9.179660499E-2
7.673248010E-1,-3.298672289E-2,7.147123665E-2,-3.298672289E-2,8.534861124E-2
7.693232000E-1,-3.665191308E-2,6.230825558E-2,-3.054326214E-2,7.847657171E-2
7.713230040E-1,-3.359758854E-2,5.497787148E-2,-2.932153270E-2,7.078924062E-2
7.733223790E-1,-3.604105115E-2,4.153883830E-2,-2.993239649E-2,6.261294446E-2
7.753205820E-1,-3.481931984E-2,3.237585723E-2,-3.420845419E-2,5.857302710E-2
7.773205820E-1,-3.726277873E-2,2.015855350E-2,-3.665191308E-2,5.602003829E-2
7.793198400E-1,-3.787364438E-2,1.282817032E-2,-3.909537569E-2,5.592336983E-2
7.813199180E-1,-3.420845419E-2,1.099557430E-2,-3.787364438E-2,5.220664643E-2
7.833203870E-1,-3.848451003E-2,-6.108652451E-4,-3.909537569E-2,5.486236478E-2
7.853203870E-1,-3.848451003E-2,-1.832595794E-3,-4.153883830E-2,5.665590002E-2
7.873198790E-1,-3.909537569E-2,-7.941247895E-3,-4.337143153E-2,5.892871025E-2
7.893195670E-1,-4.092797264E-2,-7.330383174E-3,-4.337143153E-2,6.008256432E-2
7.913184340E-1,-4.581489414E-2,-1.099557430E-2,-4.092797264E-2,6.240998417E-2
7.933176920E-1,-4.459316283E-2,-6.719517522E-3,-3.787364438E-2,5.889070407E-2
7.953169110E-1,-4.642575979E-2,-6.719517522E-3,-3.848451003E-2,6.067586506E-2
7.973151140E-1,-4.642575979E-2,0.000000000E0,-4.092797264E-2,6.189063029E-2
7.993142540E-1,-4.642575979E-2,2.443460980E-3,-4.337143153E-2,6.357989263E-2
8.013140200E-1,-4.703662544E-2,9.773843922E-3,-4.214970022E-2,6.391063595E-2
8.033141760E-1,-4.764748737E-2,1.588249579E-2,-4.276056588E-2,6.596213095E-2
8.053143710E-1,-4.886921868E-2,2.015855350E-2,-4.214970022E-2,6.761039153E-2
8.073132000E-1,-4.825835302E-2,2.932153270E-2,-4.092797264E-2,6.974037468E-2
8.093136680E-1,-4.520402849E-2,3.359758854E-2,-4.398229718E-2,7.146079074E-2
8.113133560E-1,-4.581489414E-2,3.787364438E-2,-4.520402849E-2,7.467812032E-2
8.133133170E-1,-4.214970022E-2,4.703662544E-2,-4.703662544E-2,7.874951108E-2
8.153133560E-1,-4.092797264E-2,5.192354694E-2,-4.520402849E-2,8.009093496E-2
8.173133950E-1,-3.848451003E-2,6.047565863E-2,-4.276056588E-2,8.346753137E-2
8.193132000E-1,-3.726277873E-2,6.536258012E-2,-4.153883830E-2,8.594333392E-2
8.213128090E-1,-3.604105115E-2,7.147123665E-2,-3.909537569E-2,8.908166723E-2
8.233131210E-1,-3.176499158E-2,7.757988572E-2,-4.031710699E-2,9.302216120E-2
8.253127310E-1,-2.993239649E-2,8.185594529E-2,-3.909537569E-2,9.552377996E-2
8.273121840E-1,-2.932153270E-2,8.185594529E-2,-4.092797264E-2,9.610019253E-2
8.293121060E-1,-2.504547499E-2,8.613199741E-2,-3.909537569E-2,9.784909399E-2
8.313124180E-1,-2.504547499E-2,8.796459436E-2,-3.726277873E-2,9.876011522E-2
8.333118320E-1,-2.321287990E-2,8.552113175E-2,-3.726277873E-2,9.613124595E-2
8.353112070E-1,-1.710422710E-2,8.246681094E-2,-3.787364438E-2,9.234577646E-2
8.373105040E-1,-1.527163107E-2,7.696902007E-2,-4.092797264E-2,8.850170456E-2
8.393104650E-1,-1.160643995E-2,7.086037099E-2,-4.214970022E-2,8.326162895E-2
8.413106610E-1,-8.552113548E-3,6.230825558E-2,-4.031710699E-2,7.470559869E-2
8.433100750E-1,-1.221730490E-3,5.192354694E-2,-3.543018550E-2,6.287165813E-2
8.453090590E-1,2.443460980E-3,4.520402849E-2,-3.604105115E-2,5.786477392E-2
8.473083560E-1,6.719517522E-3,3.665191308E-2,-3.298672289E-2,4.976583702E-2
8.493070670E-1,1.221730467E-2,2.993239649E-2,-3.359758854E-2,4.662626779E-2
8.513064810E-1,1.282817032E-2,2.932153270E-2,-3.420845419E-2,4.684583836E-2
8.533059340E-1,1.710422710E-2,2.626720630E-2,-3.726277873E-2,4.869327869E-2
8.553049570E-1,1.954768784E-2,2.443460934E-2,-3.115412779E-2,4.415588196E-2
8.573052310E-1,2.076941915E-2,2.993239649E-2,-2.504547499E-2,4.421077865E-2
8.593057000E-1,2.321287990E-2,3.359758854E-2,-2.015855350E-2,4.554122339E-2
8.613055430E-1,2.809980139E-2,4.153883830E-2,-2.199114859E-2,5.476024600E-2
8.633055430E-1,2.809980139E-2,5.253441259E-2,-2.260201424E-2,6.372059630E-2
8.653045670E-1,2.993239649E-2,6.169738993E-2,-2.015855350E-2,7.147645460E-2
8.673030040E-1,3.237585723E-2,7.452555746E-2,-1.160643995E-2,8.207901251E-2
8.693023400E-1,3.237585723E-2,8.368854225E-2,-7.330383174E-3,9.003167638E-2
8.713019890E-1,3.115412779E-2,9.224065393E-2,-1.038470957E-2,9.791200187E-2
8.733018710E-1,3.176499158E-2,1.014036313E-1,-1.404990070E-2,1.071872699E-1
8.753020280E-1,2.993239649E-2,1.075122803E-1,-1.588249579E-2,1.127257400E-1
8.773026140E-1,3.054326214E-2,1.154535338E-1,-1.282817032E-2,1.201123278E-1
8.793034730E-1,2.687807009E-2,1.178969890E-1,-5.497787148E-3,1.210469179E-1
8.813037860E-1,2.687807009E-2,1.258382350E-1,6.108652451E-4,1.286781458E-1
8.833033560E-1,2.138028294E-2,1.258382350E-1,1.221730490E-3,1.276474462E-1
8.853026140E-1,1.893682219E-2,1.301143020E-1,1.832595794E-3,1.314978830E-1
8.873022230E-1,1.588249579E-2,1.307251602E-1,5.497787148E-3,1.318011641E-1
8.893023010E-1,9.773843922E-3,1.356120855E-1,8.552113548E-3,1.362325379E-1
8.913019500E-1,4.276056774E-3,1.362229437E-1,1.404990070E-2,1.370123161E-1
8.933024960E-1,1.221730490E-3,1.368338168E-1,1.771509275E-2,1.379811964E-1
8.953023010E-1,-7.330383174E-3,1.343903542E-1,1.893682219E-2,1.359158013E-1
8.973013250E-1,-1.038470957E-2,1.313360333E-1,2.138028294E-2,1.334695184E-1
8.993008560E-1,-1.343903504E-2,1.240056455E-1,2.076941915E-2,1.264491066E-1
9.013005040E-1,-1.893682219E-2,1.142318025E-1,2.138028294E-2,1.177481399E-1
9.033009340E-1,-2.382374369E-2,9.651670605E-2,2.321287990E-2,1.020876246E-1
9.053009730E-1,-2.748893574E-2,8.002334833E-2,2.748893574E-2,8.896639508E-2
9.073010510E-1,-3.115412779E-2,6.108652428E-2,2.809980139E-2,7.410628830E-2
9.093013250E-1,-3.237585723E-2,3.909537569E-2,2.993239649E-2,5.892871025E-2
9.113019110E-1,-3.237585723E-2,2.443460934E-2,2.504547499E-2,4.767097736E-2
9.133026920E-1,-3.665191308E-2,3.665191587E-3,2.321287990E-2,4.353888095E-2
9.153032390E-1,-3.604105115E-2,-1.221730467E-2,2.504547499E-2,4.555760879E-2
9.173035510E-1,-3.604105115E-2,-2.748893574E-2,2.871066704E-2,5.365539449E-2
9.193037070E-1,-3.604105115E-2,-4.092797264E-2,2.871066704E-2,6.163082601E-2
9.213041760E-1,-3.726277873E-2,-4.581489414E-2,2.748893574E-2,6.513954860E-2
9.233035120E-1,-3.359758854E-2,-5.375614017E-2,2.687807009E-2,6.885456567E-2
9.253037860E-1,-3.237585723E-2,-5.986479297E-2,2.993239649E-2,7.435010376E-2
9.273042540E-1,-3.176499158E-2,-5.803219974E-2,3.176499158E-2,7.338777546E-2
9.293046840E-1,-2.932153270E-2,-5.742133409E-2,3.420845419E-2,7.298753473E-2
9.313045280E-1,-2.687807009E-2,-5.314527452E-2,3.298672289E-2,6.808064881E-2
9.333046840E-1,-2.199114859E-2,-4.642575979E-2,2.504547499E-2,5.715100704E-2
9.353044110E-1,-2.015855350E-2,-3.909537569E-2,2.138028294E-2,4.890738367E-2
9.373048010E-1,-1.466076635E-2,-2.871066704E-2,1.710422710E-2,3.649376737E-2
9.393047620E-1,-1.160643995E-2,-1.771509275E-2,1.588249579E-2,2.647239377E-2
9.413041760E-1,-6.719517522E-3,-8.552113548E-3,1.038470957E-2,1.503771109E-2
9.433032390E-1,-1.832595794E-3,3.054326167E-3,8.552113548E-3,9.264230233E-3
9.453026140E-1,-6.108652451E-4,9.162978269E-3,6.108652335E-3,1.102945876E-2
9.473011680E-1,1.221730490E-3,2.015855350E-2,4.276056774E-3,2.064326927E-2
9.493002700E-1,7.330383174E-3,2.932153270E-2,1.832595794E-3,3.027945185E-2
9.513003480E-1,1.221730467E-2,3.848451003E-2,-1.221730490E-3,4.039570115E-2
9.533001140E-1,1.404990070E-2,4.825835302E-2,-3.054326167E-3,5.035471432E-2
9.552990980E-1,1.710422710E-2,5.681046844E-2,-3.054326167E-3,5.940801980E-2
9.572986290E-1,2.076941915E-2,6.780604273E-2,-2.443460980E-3,7.095772477E-2
9.592989420E-1,2.382374369E-2,7.024950534E-2,-1.832595794E-3,7.420190140E-2
9.612989810E-1,2.687807009E-2,7.757988572E-2,-2.443460980E-3,8.214036658E-2
9.632976140E-1,3.176499158E-2,8.246681094E-2,-6.108652335E-3,8.858388810E-2
9.652967930E-1,3.237585723E-2,8.796459436E-2,-1.282817032E-2,9.460722989E-2
9.672964030E-1,3.420845419E-2,8.979719132E-2,-1.221730467E-2,9.686597153E-2
9.692964810E-1,3.604105115E-2,9.040805697E-2,-9.773843922E-3,9.781667628E-2
9.712956610E-1,3.970624134E-2,9.285151958E-2,-9.162978269E-3,1.013999530E-1
9.732957390E-1,3.726277873E-2,9.468411654E-2,-6.719517522E-3,1.019742542E-1
9.752954650E-1,4.092797264E-2,9.590584040E-2,-1.099557430E-2,1.048519519E-1
9.772942540E-1,3.726277873E-2,9.346238524E-2,-1.343903504E-2,1.015102940E-1
9.792931610E-1,3.970624134E-2,9.346238524E-2,-1.282817032E-2,1.023541157E-1
9.812919110E-1,3.726277873E-2,9.101892263E-2,-1.221730467E-2,9.910712128E-2
9.832913250E-1,3.970624134E-2,8.918632567E-2,-1.038470957E-2,9.817651695E-2
9.852912070E-1,3.970624134E-2,8.613199741E-2,-1.160643995E-2,9.555111735E-2
9.872907780E-1,3.298672289E-2,8.002334833E-2,-1.588249579E-2,8.800064680E-2
9.892902700E-1,3.543018550E-2,7.757988572E-2,-1.954768784E-2,8.749885035E-2
9.912889810E-1,3.543018550E-2,7.452555746E-2,-1.832595654E-2,8.452926973E-2
9.932885900E-1,3.237585723E-2,6.719517708E-2,-1.466076635E-2,7.601530125E-2
9.952885510E-1,3.054326214E-2,5.925392732E-2,-1.404990070E-2,6.812722271E-2
9.972885120E-1,3.176499158E-2,4.764748737E-2,-1.343903504E-2,5.882096060E-2
9.992880820E-1,3.298672289E-2,3.848451003E-2,-1.343903504E-2,5.243843116E-2
1.001288278E0,3.115412779E-2,3.054326214E-2,-1.038470957E-2,4.484766140E-2
1.003287926E0,3.237585723E-2,2.321287990E-2,-9.162978269E-3,4.087779465E-2
1.005287731E0,2.993239649E-2,1.221730467E-2,-6.108652335E-3,3.290177087E-2
1.007286911E0,2.748893574E-2,5.497787148E-3,-6.108652335E-3,2.869116388E-2
1.009285856E0,2.443460934E-2,-4.276056774E-3,-3.665191587E-3,2.507525522E-2
1.011285114E0,1.954768784E-2,-9.162978269E-3,0.000000000E0,2.158870702E-2
1.013285973E0,1.527163107E-2,-1.893682219E-2,1.221730490E-3,2.435813161E-2
1.015286676E0,1.404990070E-2,-2.382374369E-2,5.497787148E-3,2.819922226E-2
1.017287028E0,6.719517522E-3,-3.054326214E-2,8.552113548E-3,3.242192813E-2
1.019287301E0,-1.221730490E-3,-3.604105115E-2,9.162978269E-3,3.720766271E-2
1.021287223E0,-4.886921961E-3,-4.092797264E-2,8.552113548E-3,4.209655089E-2
1.023287692E0,-1.099557430E-2,-4.642575979E-2,7.941247895E-3,4.836648886E-2
1.025288668E0,-1.710422710E-2,-5.253441259E-2,1.160643995E-2,5.645465915E-2
1.027288981E0,-2.382374369E-2,-5.436700583E-2,2.015855350E-2,6.268739399E-2
1.029289254E0,-2.321287990E-2,-5.558873713E-2,2.321287990E-2,6.455837112E-2
1.031289254E0,-3.054326214E-2,-5.497787148E-2,2.565634064E-2,6.792425951E-2
1.033288434E0,-3.176499158E-2,-5.131268129E-2,2.626720630E-2,6.581771857E-2
1.035287614E0,-3.481931984E-2,-4.764748737E-2,2.748893574E-2,6.510230161E-2
1.037286832E0,-3.604105115E-2,-4.642575979E-2,3.176499158E-2,6.680810752E-2
1.039285114E0,-3.604105115E-2,-4.337143153E-2,3.298672289E-2,6.533117424E-2
1.041283746E0,-3.909537569E-2,-3.970624134E-2,3.787364438E-2,6.737541792E-2
1.043282418E0,-4.337143153E-2,-3.237585723E-2,3.970624134E-2,6.712572388E-2
1.045280817E0,-4.276056588E-2,-2.443460934E-2,3.970624134E-2,6.326216665E-2
1.047279411E0,-4.276056588E-2,-1.893682219E-2,3.909537569E-2,6.095504597E-2
1.049279098E0,-4.153883830E-2,-1.588249579E-2,4.092797264E-2,6.043862759E-2
1.051278707E0,-4.398229718E-2,-1.221730467E-2,3.970624134E-2,6.050033554E-2
1.053277731E0,-4.214970022E-2,-7.330383174E-3,3.848451003E-2,5.754467186E-2
1.055276051E0,-4.276056588E-2,-1.221730490E-3,3.970624134E-2,5.836560820E-2
1.057274567E0,-4.337143153E-2,-6.108652451E-4,3.848451003E-2,5.798716877E-2
1.059274332E0,-4.153883830E-2,3.054326167E-3,4.031710699E-2,5.796786275E-2
1.061273473E0,-3.909537569E-2,5.497787148E-3,3.909537569E-2,5.556187959E-2
1.063272770E0,-4.214970022E-2,6.719517522E-3,3.909537569E-2,5.788089102E-2
1.065272145E0,-3.848451003E-2,1.160643995E-2,3.298672289E-2,5.199895045E-2
1.067271286E0,-4.092797264E-2,1.404990070E-2,3.665191308E-2,5.670856537E-2
1.069271403E0,-3.909537569E-2,1.954768784E-2,3.848451003E-2,5.823759965E-2
1.071271911E0,-3.970624134E-2,2.504547499E-2,4.459316283E-2,6.474883466E-2
1.073272809E0,-3.909537569E-2,3.054326214E-2,4.337143153E-2,6.589704345E-2
1.075273707E0,-3.909537569E-2,3.787364438E-2,4.092797264E-2,6.810257178E-2
1.077275153E0,-4.214970022E-2,4.459316283E-2,3.909537569E-2,7.275710138E-2
1.079276403E0,-4.398229718E-2,4.948008433E-2,4.214970022E-2,7.848132542E-2
1.081278356E0,-4.581489414E-2,4.948008433E-2,4.092797264E-2,7.888207791E-2
1.083279684E0,-4.581489414E-2,5.131268129E-2,4.337143153E-2,8.132082672E-2
1.085280270E0,-4.703662544E-2,5.131268129E-2,4.337143153E-2,8.201534288E-2
1.087280309E0,-4.886921868E-2,4.764748737E-2,4.459316283E-2,8.152934293E-2
1.089281051E0,-4.642575979E-2,4.031710699E-2,4.459316283E-2,7.595637208E-2
1.091280895E0,-4.764748737E-2,3.054326214E-2,4.520402849E-2,7.243326657E-2
1.093280778E0,-4.642575979E-2,2.076941915E-2,4.398229718E-2,6.723958960E-2
1.095280465E0,-4.581489414E-2,1.160643995E-2,4.398229718E-2,6.456126113E-2
1.097279840E0,-4.642575979E-2,-6.108652451E-4,4.031710699E-2,6.149140952E-2
1.099279801E0,-4.398229718E-2,-5.497787148E-3,4.092797264E-2,6.033048213E-2
1.101280661E0,-3.909537569E-2,-9.773843922E-3,3.909537569E-2,5.614645871E-2
1.103281637E0,-3.787364438E-2,-1.038470957E-2,4.214970022E-2,5.760948152E-2
1.105282067E0,-3.665191308E-2,-9.773843922E-3,4.153883830E-2,5.625269633E-2
1.107282848E0,-3.665191308E-2,-6.108652335E-3,4.214970022E-2,5.618963957E-2
1.109283864E0,-3.481931984E-2,-3.054326167E-3,4.031710699E-2,5.335900167E-2
1.111284762E0,-3.237585723E-2,4.276056774E-3,3.970624134E-2,5.141076147E-2
1.113285739E0,-3.237585723E-2,8.552113548E-3,4.276056588E-2,5.431206838E-2
1.115286286E0,-3.237585723E-2,1.404990070E-2,4.581489414E-2,5.783251997E-2
1.117286637E0,-3.054326214E-2,1.893682219E-2,4.581489414E-2,5.822798830E-2
1.119286950E0,-3.176499158E-2,2.260201424E-2,4.398229718E-2,5.877336304E-2
1.121287184E0,-2.565634064E-2,2.565634064E-2,4.092797264E-2,5.469547125E-2
1.123287965E0,-2.504547499E-2,2.993239649E-2,4.276056588E-2,5.789378353E-2
1.125288278E0,-2.260201424E-2,3.237585723E-2,4.092797264E-2,5.686955358E-2
1.127287731E0,-2.076941915E-2,3.726277873E-2,4.092797264E-2,5.911837612E-2
1.129286989E0,-1.954768784E-2,4.520402849E-2,3.909537569E-2,6.288055893E-2
1.131286090E0,-1.527163107E-2,4.886921868E-2,3.726277873E-2,6.332407069E-2
1.133285661E0,-1.343903504E-2,5.497787148E-2,3.726277873E-2,6.776200037E-2
1.135285465E0,-1.099557430E-2,5.986479297E-2,3.420845419E-2,6.982058744E-2
1.137284957E0,-8.552113548E-3,7.024950534E-2,3.359758854E-2,7.833855757E-2
1.139283161E0,-4.276056774E-3,7.757988572E-2,3.298672289E-2,8.440999477E-2
1.141281832E0,-1.832595794E-3,8.613199741E-2,3.298672289E-2,9.225076299E-2
1.143280739E0,-4.276056774E-3,9.285151958E-2,3.298672289E-2,9.862967727E-2
1.145279371E0,-1.221730490E-3,9.529497474E-2,3.237585723E-2,1.006519795E-1
1.147277614E0,1.832595794E-3,9.651670605E-2,2.932153270E-2,1.008889748E-1
1.149276246E0,5.497787148E-3,9.407325089E-2,2.748893574E-2,9.816131511E-2
1.151275270E0,6.719517522E-3,9.285151958E-2,2.382374369E-2,9.609436699E-2
1.153274059E0,1.160643995E-2,8.491026610E-2,2.076941915E-2,8.818067537E-2
1.155273004E0,1.343903504E-2,7.452555746E-2,1.954768784E-2,7.820983619E-2
1.157271598E0,1.710422710E-2,7.086037099E-2,1.832595654E-2,7.516373757E-2
1.159270582E0,2.076941915E-2,6.047565863E-2,1.527163107E-2,6.574113456E-2
1.161269450E0,2.260201424E-2,5.253441259E-2,1.282817032E-2,5.861124046E-2
1.163268161E0,2.504547499E-2,4.337143153E-2,9.162978269E-3,5.091480199E-2
1.165267340E0,2.687807009E-2,3.909537569E-2,1.099557430E-2,4.870094153E-2
1.167266168E0,2.626720630E-2,3.726277873E-2,1.160643995E-2,4.704455605E-2
1.169265661E0,2.687807009E-2,4.337143153E-2,1.466076635E-2,5.308907415E-2
1.171265192E0,2.321287990E-2,4.520402849E-2,1.588249579E-2,5.323998175E-2
1.173264098E0,2.260201424E-2,4.948008433E-2,1.343903504E-2,5.603336021E-2
1.175262926E0,1.771509275E-2,5.681046844E-2,1.343903504E-2,6.100706105E-2
1.177262028E0,1.710422710E-2,6.230825558E-2,1.588249579E-2,6.653665885E-2
1.179261286E0,1.404990070E-2,6.230825558E-2,1.588249579E-2,6.581771871E-2
1.181261168E0,1.160643995E-2,7.208210230E-2,1.710422710E-2,7.498728895E-2
1.183261207E0,7.941247895E-3,7.574728876E-2,1.649336144E-2,7.792782651E-2
1.185261598E0,6.108652335E-3,8.307767659E-2,1.527163107E-2,8.469025149E-2
1.187262184E0,6.108652335E-3,9.346238524E-2,1.282817032E-2,9.453621021E-2
1.189262418E0,4.276056774E-3,1.032362282E-1,9.162978269E-3,1.037302446E-1
1.191262496E0,1.221730490E-3,1.117883399E-1,9.773843922E-3,1.122214489E-1
1.193263043E0,-6.108652451E-4,1.185078546E-1,1.282817032E-2,1.192017060E-1
1.195263004E0,-2.443460980E-3,1.325577646E-1,1.527163107E-2,1.334569376E-1
1.197263278E0,-2.443460980E-3,1.411098689E-1,1.282817032E-2,1.417128348E-1
1.199263746E0,-6.108652335E-3,1.527163088E-1,1.099557430E-2,1.532334470E-1
1.201264332E0,-7.330383174E-3,1.624901593E-1,1.160643995E-2,1.630689910E-1
1.203264606E0,-8.552113548E-3,1.692096740E-1,1.099557430E-2,1.697820811E-1
1.205264293E0,-1.343903504E-2,1.771509200E-1,1.099557430E-2,1.779998842E-1
1.207264489E0,-1.527163107E-2,1.857030392E-1,1.282817032E-2,1.867709919E-1
1.209264801E0,-1.466076635E-2,1.899790913E-1,1.466076635E-2,1.911071199E-1
1.211264918E0,-1.954768784E-2,1.924225539E-1,1.893682219E-2,1.943377333E-1
1.213265778E0,-2.626720630E-2,1.905899495E-1,1.954768784E-2,1.933820237E-1
1.215267418E0,-2.504547499E-2,1.857030392E-1,1.710422710E-2,1.881633576E-1
1.217268239E0,-2.932153270E-2,1.759291887E-1,1.649336144E-2,1.791168967E-1
1.219269293E0,-2.748893574E-2,1.679879427E-1,1.527163107E-2,1.709058606E-1
1.221270700E0,-2.687807009E-2,1.582140923E-1,1.588249579E-2,1.612649476E-1
1.223272848E0,-3.054326214E-2,1.472185254E-1,1.893682219E-2,1.515413749E-1
1.225275426E0,-2.871066704E-2,1.398881376E-1,2.076941915E-2,1.443064871E-1
1.227277887E0,-2.809980139E-2,1.380555481E-1,2.076941915E-2,1.424089252E-1
1.229279020E0,-2.809980139E-2,1.331686229E-1,2.382374369E-2,1.381703721E-1
1.231279371E0,-2.932153270E-2,1.313360333E-1,2.687807009E-2,1.372273172E-1
1.233279450E0,-2.932153270E-2,1.252273768E-1,2.626720630E-2,1.312692436E-1
1.235279254E0,-2.993239649E-2,1.197295859E-1,2.626720630E-2,1.261787947E-1
1.237280309E0,-3.420845419E-2,1.087340117E-1,2.871066704E-2,1.175483136E-1
1.239280778E0,-3.543018550E-2,9.407325089E-2,3.237585723E-2,1.056090465E-1
1.241280270E0,-3.237585723E-2,7.330382615E-2,3.359758854E-2,8.689329673E-2
1.243279840E0,-3.115412779E-2,4.948008433E-2,3.420845419E-2,6.774272479E-2
1.245280075E0,-2.748893574E-2,2.565634064E-2,3.359758854E-2,5.042506677E-2
1.247280348E0,-2.809980139E-2,-2.443460980E-3,3.237585723E-2,4.293909025E-2
1.249280036E0,-2.687807009E-2,-2.138028294E-2,3.420845419E-2,4.847437971E-2
1.251279176E0,-2.687807009E-2,-2.993239649E-2,3.420845419E-2,5.280717138E-2
1.253279059E0,-2.443460934E-2,-4.214970022E-2,2.993239649E-2,5.718037882E-2
1.255279059E0,-2.871066704E-2,-5.619960278E-2,2.809980139E-2,6.908181087E-2
1.257279020E0,-2.871066704E-2,-6.352998316E-2,2.687807009E-2,7.471808224E-2
1.259278551E0,-3.054326214E-2,-6.719517708E-2,3.115412779E-2,8.011655486E-2
1.261277496E0,-3.420845419E-2,-6.780604273E-2,3.359758854E-2,8.304622643E-2
1.263276793E0,-3.604105115E-2,-7.024950534E-2,3.543018550E-2,8.654044380E-2
1.265275465E0,-3.787364438E-2,-6.230825558E-2,3.420845419E-2,8.054160410E-2
1.267274371E0,-3.604105115E-2,-5.864306539E-2,2.932153270E-2,7.481790405E-2
1.269273668E0,-3.481931984E-2,-5.864306539E-2,2.809980139E-2,7.376308692E-2
1.271272692E0,-3.237585723E-2,-5.070181563E-2,2.809980139E-2,6.639630320E-2
1.273271989E0,-3.115412779E-2,-5.192354694E-2,2.748893574E-2,6.650019544E-2
1.275271637E0,-3.054326214E-2,-4.642575979E-2,2.809980139E-2,6.227231225E-2
1.277270934E0,-2.687807009E-2,-3.909537569E-2,2.443460934E-2,5.336599278E-2
1.279270270E0,-2.565634064E-2,-3.115412779E-2,2.138028294E-2,4.567213584E-2
1.281269762E0,-1.954768784E-2,-2.748893574E-2,2.138028294E-2,3.993582585E-2
1.283268864E0,-1.954768784E-2,-2.138028294E-2,2.321287990E-2,3.712231663E-2
1.285268825E0,-1.588249579E-2,-1.649336144E-2,2.260201424E-2,3.217352471E-2
1.287268043E0,-1.466076635E-2,-9.773843922E-3,1.466076635E-2,2.292169638E-2
1.289268317E0,-1.221730467E-2,-1.221730490E-3,8.552113548E-3,1.496308140E-2
1.291267965E0,-1.099557430E-2,7.330383174E-3,8.552113548E-3,1.574089634E-2
1.293266989E0,-1.160643995E-2,1.527163107E-2,8.552113548E-3,2.100168588E-2
1.295266598E0,-1.221730467E-2,2.687807009E-2,7.941247895E-3,3.057378948E-2
1.297267106E0,-8.552113548E-3,3.054326214E-2,7.941247895E-3,3.269698650E-2
1.299266637E0,-1.282817032E-2,4.459316283E-2,2.443460980E-3,4.646592974E-2
1.301266246E0,-9.773843922E-3,5.742133409E-2,6.108652451E-4,5.825041450E-2
1.303265114E0,-1.038470957E-2,6.902777404E-2,-1.832595794E-3,6.982860580E-2
1.305264411E0,-9.162978269E-3,7.819075137E-2,0.000000000E0,7.872581388E-2
1.307263512E0,-9.773843922E-3,9.040805697E-2,1.221730490E-3,9.094304490E-2
1.309263473E0,-1.038470957E-2,9.346238524E-2,-2.443460980E-3,9.406928377E-2
1.311262575E0,-1.160643995E-2,9.957103431E-2,-4.276056774E-3,1.003363592E-1
1.313262457E0,-1.466076635E-2,1.026253626E-1,-4.276056774E-3,1.037554229E-1
1.315261793E0,-1.404990070E-2,9.896016866E-2,-6.719517522E-3,1.001781743E-1
1.317261090E0,-1.588249579E-2,1.007927656E-1,-7.330383174E-3,1.022994125E-1
1.319260504E0,-1.771509275E-2,9.834930301E-2,-6.108652335E-3,1.001185575E-1
1.321259957E0,-1.893682219E-2,9.834930301E-2,-4.276056774E-3,1.002470613E-1
1.323258278E0,-2.138028294E-2,9.712757170E-2,0.000000000E0,9.945291189E-2
1.325256989E0,-2.199114859E-2,9.896016866E-2,-6.108652451E-4,1.013760265E-1
1.327256325E0,-2.199114859E-2,1.020144969E-1,1.832595794E-3,1.043739748E-1
1.329254957E0,-2.565634064E-2,1.062905490E-1,4.276056774E-3,1.094267485E-1
1.331252887E0,-2.687807009E-2,1.105666086E-1,5.497787148E-3,1.139194068E-1
1.333251520E0,-3.115412779E-2,1.148426682E-1,9.162978269E-3,1.193456253E-1
1.335250582E0,-3.237585723E-2,1.227839142E-1,1.038470957E-2,1.274045836E-1
1.337250075E0,-3.298672289E-2,1.282816976E-1,1.038470957E-2,1.328614317E-1
1.339249723E0,-3.359758854E-2,1.362229437E-1,1.404990070E-2,1.410066950E-1
1.341248590E0,-3.543018550E-2,1.423316002E-1,1.588249579E-2,1.475324918E-1
1.343247848E0,-3.420845419E-2,1.429424733E-1,1.466076635E-2,1.477081822E-1
1.345247536E0,-3.481931984E-2,1.472185254E-1,1.466076635E-2,1.519888724E-1
1.347247301E0,-3.481931984E-2,1.514945775E-1,1.893682219E-2,1.565937269E-1
1.349247262E0,-3.115412779E-2,1.496619880E-1,2.015855350E-2,1.541935719E-1
1.351247301E0,-3.176499158E-2,1.521054506E-1,1.832595654E-2,1.564638089E-1
1.353247653E0,-2.565634064E-2,1.521054506E-1,1.343903504E-2,1.548383789E-1
1.355247457E0,-1.832595654E-2,1.514945775E-1,1.282817032E-2,1.531372249E-1
1.357246989E0,-1.343903504E-2,1.527163088E-1,1.404990070E-2,1.539489472E-1
1.359246676E0,-9.773843922E-3,1.466076523E-1,1.221730467E-2,1.474401379E-1
1.361246403E0,-1.221730490E-3,1.404990107E-1,9.162978269E-3,1.408027869E-1
1.363245973E0,3.054326167E-3,1.362229437E-1,9.162978269E-3,1.365649276E-1
1.365246129E0,6.108652335E-3,1.295034289E-1,6.719517522E-3,1.298214376E-1
1.367245856E0,1.038470957E-2,1.240056455E-1,4.886921961E-3,1.245356347E-1
1.369246012E0,1.466076635E-2,1.075122803E-1,2.443460980E-3,1.085347824E-1
1.371246832E0,1.649336144E-2,9.162978828E-2,0.000000000E0,9.310235804E-2
1.373247262E0,2.199114859E-2,7.635815442E-2,-1.221730490E-3,7.947119596E-2
1.375246832E0,1.832595654E-2,5.986479297E-2,-6.108652451E-4,6.260996148E-2
1.377246832E0,2.199114859E-2,4.581489414E-2,3.665191587E-3,5.095143541E-2
1.379246871E0,1.893682219E-2,4.520402849E-2,6.108652335E-3,4.938950354E-2
1.381246598E0,2.015855350E-2,4.031710699E-2,6.719517522E-3,4.557398722E-2
1.383246403E0,2.138028294E-2,4.153883830E-2,6.108652335E-3,4.711589136E-2
1.385247028E0,2.199114859E-2,4.520402849E-2,7.941247895E-3,5.089281114E-2
1.387246286E0,2.260201424E-2,4.948008433E-2,9.773843922E-3,5.526895890E-2
1.389245309E0,2.626720630E-2,5.803219974E-2,7.330383174E-3,6.412048698E-2
1.391244996E0,2.443460934E-2,5.986479297E-2,6.719517522E-3,6.500765714E-2
1.393244215E0,2.382374369E-2,6.841690838E-2,3.054326167E-3,7.251050286E-2
1.395243395E0,2.687807009E-2,7.574728876E-2,4.276056774E-3,8.048830392E-2
1.397242536E0,3.054326214E-2,8.918632567E-2,6.719517522E-3,9.451054684E-2
1.399241364E0,2.809980139E-2,9.957103431E-2,1.160643995E-2,1.041090734E-1
1.401240621E0,2.565634064E-2,1.105666086E-1,1.649336144E-2,1.146963545E-1
1.403239918E0,2.565634064E-2,1.203404516E-1,1.649336144E-2,1.241454916E-1
1.405239020E0,2.382374369E-2,1.282816976E-1,1.282817032E-2,1.311042588E-1
1.407238317E0,2.138028294E-2,1.331686229E-1,1.160643995E-2,1.353724790E-1
1.409236989E0,1.954768784E-2,1.392772794E-1,1.282817032E-2,1.412261824E-1
1.411235621E0,2.076941915E-2,1.392772794E-1,1.649336144E-2,1.417799714E-1
1.413234723E0,2.015855350E-2,1.423316002E-1,1.832595654E-2,1.449154663E-1
1.415233942E0,1.771509275E-2,1.429424733E-1,1.649336144E-2,1.449772608E-1
1.417233395E0,1.710422710E-2,1.459967941E-1,1.466076635E-2,1.477245969E-1
1.419232223E0,1.527163107E-2,1.411098689E-1,1.221730467E-2,1.424586970E-1
1.421232223E0,1.466076635E-2,1.380555481E-1,1.038470957E-2,1.392196632E-1
1.423231520E0,1.527163107E-2,1.331686229E-1,1.099557430E-2,1.344916632E-1
1.425230192E0,1.588249579E-2,1.301143020E-1,7.941247895E-3,1.313204047E-1
1.427229293E0,1.832595654E-2,1.215621829E-1,1.160643995E-2,1.234824459E-1
1.429228200E0,1.954768784E-2,1.172861308E-1,1.160643995E-2,1.194690672E-1
1.431227575E0,2.443460934E-2,1.117883399E-1,1.160643995E-2,1.150147492E-1
1.433226286E0,2.321287990E-2,1.123992056E-1,1.893682219E-2,1.163229231E-1
1.435225036E0,2.321287990E-2,1.233947799E-1,2.321287990E-2,1.276869112E-1
1.437223356E0,2.199114859E-2,1.288925707E-1,2.687807009E-2,1.334890859E-1
1.439220661E0,2.199114859E-2,1.459967941E-1,2.932153270E-2,1.505271629E-1
1.441218786E0,2.015855350E-2,1.576032341E-1,2.871066704E-2,1.614603638E-1
1.443216715E0,1.954768784E-2,1.667662114E-1,2.809980139E-2,1.702430034E-1
1.445216286E0,2.138028294E-2,1.765400618E-1,2.443460934E-2,1.795008637E-1
1.447215075E0,2.382374369E-2,1.795943826E-1,2.076941915E-2,1.823542756E-1
1.449213786E0,2.321287990E-2,1.857030392E-1,2.199114859E-2,1.884358436E-1
1.451212028E0,2.809980139E-2,1.905899495E-1,2.382374369E-2,1.941177438E-1
1.453210621E0,2.932153270E-2,1.960877478E-1,2.748893574E-2,2.001644292E-1
1.455210504E0,3.298672289E-2,1.991420686E-1,2.565634064E-2,2.034795695E-1
1.457209957E0,3.665191308E-2,2.009746730E-1,2.382374369E-2,2.056738989E-1
1.459209684E0,4.031710699E-2,2.040289938E-1,2.138028294E-2,2.090703612E-1
1.461209450E0,4.031710699E-2,2.009746730E-1,2.138028294E-2,2.060907684E-1
1.463208551E0,3.848451003E-2,1.997529417E-1,1.527163107E-2,2.039988185E-1
1.465208668E0,4.337143153E-2,1.979203373E-1,1.160643995E-2,2.029488863E-1
1.467208786E0,4.520402849E-2,1.973094791E-1,7.330383174E-3,2.025541144E-1
1.469208239E0,4.642575979E-2,2.009746730E-1,8.552113548E-3,2.064444454E-1
1.471207731E0,4.581489414E-2,2.052507252E-1,8.552113548E-3,2.104756597E-1
1.473207262E0,4.581489414E-2,2.089159191E-1,9.162978269E-3,2.140766824E-1
1.475206520E0,4.825835302E-2,2.144137025E-1,6.719517522E-3,2.198800954E-1
1.477205309E0,4.825835302E-2,2.107485086E-1,9.773843922E-3,2.164239602E-1
1.479203629E0,4.825835302E-2,2.107485086E-1,1.038470957E-2,2.164524075E-1
1.481202965E0,4.642575979E-2,2.144137025E-1,1.160643995E-2,2.196890904E-1
1.483202926E0,4.764748737E-2,2.107485086E-1,1.099557430E-2,2.163472199E-1
1.485202301E0,4.825835302E-2,2.040289938E-1,1.282817032E-2,2.100506151E-1
1.487201090E0,4.948008433E-2,1.960877478E-1,1.099557430E-2,2.025329263E-1
1.489200426E0,4.459316283E-2,1.838704348E-1,1.038470957E-2,1.894854325E-1
1.491199918E0,4.337143153E-2,1.643227488E-1,1.221730467E-2,1.703887008E-1
1.493199918E0,4.581489414E-2,1.484402567E-1,1.160643995E-2,1.557826171E-1
1.495199879E0,4.520402849E-2,1.288925707E-1,1.099557430E-2,1.370313892E-1
1.497199098E0,4.642575979E-2,1.093448773E-1,1.221730467E-2,1.194190768E-1
1.499198200E0,4.398229718E-2,9.590584040E-2,1.160643995E-2,1.061465126E-1
1.501197887E0,4.459316283E-2,8.246681094E-2,1.527163107E-2,9.498709278E-2
1.503196598E0,3.909537569E-2,7.147123665E-2,1.527163107E-2,8.288430963E-2
1.505194879E0,3.848451003E-2,6.414084882E-2,1.893682219E-2,7.716028275E-2
1.507193668E0,3.543018550E-2,6.108652428E-2,1.588249579E-2,7.238173226E-2
1.509193551E0,3.359758854E-2,5.742133409E-2,1.588249579E-2,6.839781602E-2
1.511192770E0,2.687807009E-2,5.681046844E-2,1.710422710E-2,6.513382040E-2
1.513191871E0,2.321287990E-2,5.803219974E-2,1.466076635E-2,6.419900365E-2
1.515191286E0,2.138028294E-2,6.414084882E-2,1.527163107E-2,6.931369057E-2
1.517190504E0,2.015855350E-2,7.269296050E-2,1.710422710E-2,7.735107220E-2
1.519189293E0,1.404990070E-2,7.880161703E-2,1.771509275E-2,8.198121167E-2
1.521188942E0,1.160643995E-2,9.040805697E-2,1.527163107E-2,9.242050059E-2
1.523187536E0,1.099557430E-2,1.026253626E-1,1.343903504E-2,1.040839822E-1
1.525186715E0,9.773843922E-3,1.191187203E-1,1.221730467E-2,1.201418332E-1
1.527186364E0,8.552113548E-3,1.337794960E-1,1.099557430E-2,1.345027689E-1
1.529186129E0,1.099557430E-2,1.466076523E-1,1.221730467E-2,1.475261635E-1
1.531187067E0,7.941247895E-3,1.539380401E-1,1.343903504E-2,1.547274742E-1
1.533186637E0,1.038470957E-2,1.692096740E-1,1.160643995E-2,1.699248817E-1
1.535186207E0,9.773843922E-3,1.832595766E-1,1.038470957E-2,1.838136084E-1
1.537184411E0,1.221730467E-2,1.997529417E-1,4.886921961E-3,2.001858693E-1
1.539183317E0,1.588249579E-2,2.101376504E-1,1.832595794E-3,2.107449743E-1
1.541182223E0,1.771509275E-2,2.241875380E-1,-1.832595794E-3,2.248938308E-1
1.543181911E0,1.649336144E-2,2.321287990E-1,-5.497787148E-3,2.327789422E-1
1.545181559E0,2.076941915E-2,2.455678284E-1,-1.099557430E-2,2.466897440E-1
1.547180661E0,2.076941915E-2,2.547308207E-1,-1.649336144E-2,2.561077717E-1
1.549180621E0,2.199114859E-2,2.614503205E-1,-1.893682219E-2,2.630560471E-1
1.551179684E0,2.015855350E-2,2.669481039E-1,-2.076941915E-2,2.685126184E-1
1.553178981E0,2.504547499E-2,2.700024247E-1,-2.260201424E-2,2.721018857E-1
1.555177262E0,2.382374369E-2,2.700024247E-1,-2.321287990E-2,2.720435956E-1
1.557176051E0,2.443460934E-2,2.748893499E-1,-2.260201424E-2,2.768971937E-1
1.559174098E0,2.871066704E-2,2.748893499E-1,-2.321287990E-2,2.773577021E-1
1.561172223E0,2.932153270E-2,2.797762752E-1,-2.443460934E-2,2.823677860E-1
1.563170973E0,3.054326214E-2,2.834414840E-1,-2.382374369E-2,2.860761026E-1
1.565169840E0,3.176499158E-2,2.858849466E-1,-2.443460934E-2,2.886802167E-1
1.567169059E0,3.359758854E-2,2.907718420E-1,-2.809980139E-2,2.940521398E-1
1.569169020E0,3.543018550E-2,2.981022298E-1,-3.237585723E-2,3.019411095E-1
1.571167965E0,3.848451003E-2,3.042109013E-1,-3.054326214E-2,3.081529179E-1
1.573166481E0,3.909537569E-2,3.103195429E-1,-2.993239649E-2,3.142015523E-1
1.575164645E0,4.337143153E-2,3.170390725E-1,-3.115412779E-2,3.215049521E-1
1.577162106E0,4.520402849E-2,3.194825351E-1,-3.237585723E-2,3.242848911E-1
1.579160387E0,4.825835302E-2,3.243694305E-1,-3.543018550E-2,3.298479864E-1
1.581158590E0,4.764748737E-2,3.316998184E-1,-3.604105115E-2,3.370371047E-1
1.583156871E0,4.886921868E-2,3.408628106E-1,-3.481931984E-2,3.461040902E-1
1.585156325E0,5.192354694E-2,3.481931984E-1,-3.298672289E-2,3.535854664E-1
1.587155621E0,5.253441259E-2,3.506366611E-1,-3.359758854E-2,3.561386395E-1
1.589155543E0,5.375614017E-2,3.579670191E-1,-3.543018550E-2,3.637106094E-1
1.591155934E0,5.497787148E-2,3.585779071E-1,-3.787364438E-2,3.647397630E-1
1.593155582E0,5.681046844E-2,3.579670191E-1,-4.031710699E-2,3.646824443E-1
1.595155543E0,5.558873713E-2,3.604104817E-1,-4.031710699E-2,3.668941157E-1
1.597155426E0,5.681046844E-2,3.561344445E-1,-3.787364438E-2,3.626204418E-1
1.599155153E0,5.742133409E-2,3.567453027E-1,-3.726277873E-2,3.632532660E-1
1.601154528E0,5.986479297E-2,3.536909819E-1,-3.665191308E-2,3.605890553E-1
1.603154567E0,5.925392732E-2,3.524692357E-1,-4.092797264E-2,3.597508707E-1
1.605154411E0,5.497787148E-2,3.518583775E-1,-4.398229718E-2,3.588332853E-1
1.607153864E0,5.375614017E-2,3.524692357E-1,-4.703662544E-2,3.596341597E-1
1.609153278E0,5.497787148E-2,3.494149148E-1,-4.398229718E-2,3.564376405E-1
1.611152575E0,5.131268129E-2,3.445279896E-1,-4.092797264E-2,3.507244301E-1
1.613151871E0,4.764748737E-2,3.433062732E-1,-3.970624134E-2,3.488639647E-1
1.615151207E0,4.825835302E-2,3.341432810E-1,-3.726277873E-2,3.396602943E-1
1.617149215E0,4.520402849E-2,3.255911767E-1,-3.420845419E-2,3.304893900E-1
1.619147575E0,4.581489414E-2,3.188716471E-1,-3.298672289E-2,3.238305973E-1
1.621145426E0,4.886921868E-2,3.207042515E-1,-3.237585723E-2,3.260178118E-1
1.623142496E0,4.948008433E-2,3.194825351E-1,-3.298672289E-2,3.249699877E-1
1.625140192E0,5.131268129E-2,3.219259977E-1,-3.176499158E-2,3.275337448E-1
1.627137692E0,5.253441259E-2,3.274237812E-1,-2.809980139E-2,3.327999336E-1
1.629135661E0,5.558873713E-2,3.426954150E-1,-2.382374369E-2,3.479911291E-1
1.631133161E0,5.681046844E-2,3.567453027E-1,-1.954768784E-2,3.617689213E-1
1.633130426E0,6.169738993E-2,3.787364662E-1,-1.466076635E-2,3.840088759E-1
1.635127536E0,6.536258012E-2,4.007275999E-1,-1.099557430E-2,4.061721049E-1
1.637125504E0,6.414084882E-2,4.214970171E-1,-9.162978269E-3,4.264478211E-1
1.639123942E0,6.902777404E-2,4.465425014E-1,-1.832595794E-3,4.518499724E-1
1.641122731E0,7.391469181E-2,4.734205604E-1,-6.108652451E-4,4.791563229E-1
1.643121832E0,7.819075137E-2,4.966334403E-1,1.832595794E-3,5.027543396E-1
1.645120700E0,8.002334833E-2,5.167919993E-1,2.443460980E-3,5.229566687E-1
1.647119332E0,8.429940045E-2,5.290092826E-1,1.832595794E-3,5.356870060E-1
1.649117965E0,8.918632567E-2,5.473352671E-1,1.221730490E-3,5.545553064E-1
1.651115661E0,9.224065393E-2,5.601634383E-1,0.000000000E0,5.677071568E-1
1.653113825E0,9.468411654E-2,5.723807216E-1,-2.443460980E-3,5.801644102E-1
1.655112457E0,9.651670605E-2,5.754350424E-1,-7.330383174E-3,5.835192345E-1
1.657110973E0,9.468411654E-2,5.797111392E-1,-7.330383174E-3,5.874383554E-1
1.659109176E0,9.957103431E-2,5.815436840E-1,-8.552113548E-3,5.900682892E-1
1.661106754E0,1.001819000E-1,5.772676468E-1,-1.160643995E-2,5.860111420E-1
1.663105114E0,1.001819000E-1,5.729916096E-1,-1.038470957E-2,5.817762800E-1
1.665103590E0,1.007927656E-1,5.668829679E-1,-6.719517522E-3,5.758130190E-1
1.667102184E0,9.896016866E-2,5.632177591E-1,-6.719517522E-3,5.718850506E-1
1.669101246E0,9.896016866E-2,5.577199459E-1,-4.886921961E-3,5.664525885E-1
1.671100231E0,9.529497474E-2,5.528330207E-1,-6.719517522E-3,5.610264102E-1
1.673099996E0,9.407325089E-2,5.387831330E-1,-6.108652335E-3,5.469683324E-1
1.675098551E0,9.101892263E-2,5.308418870E-1,-2.443460980E-3,5.385940250E-1
1.677097262E0,8.857546002E-2,5.161811113E-1,6.108652451E-4,5.237260018E-1
1.679096129E0,8.246681094E-2,5.015203953E-1,0.000000000E0,5.082553313E-1
1.681094879E0,8.246681094E-2,4.893030524E-1,-2.443460980E-3,4.962098573E-1
1.683094020E0,8.063421398E-2,4.752531648E-1,-6.719517522E-3,4.820918989E-1
1.685092340E0,8.674286306E-2,4.660901725E-1,-5.497787148E-3,4.741250878E-1
1.687091246E0,8.918632567E-2,4.624249935E-1,-6.719517522E-3,4.709949333E-1
1.689090114E0,9.224065393E-2,4.550946057E-1,-6.108652335E-3,4.643885808E-1
1.691090036E0,9.162978828E-2,4.563163519E-1,-6.108652335E-3,4.654653013E-1
1.693090543E0,9.712757170E-2,4.563163519E-1,-6.719517522E-3,4.665871088E-1
1.695089137E0,9.834930301E-2,4.624249935E-1,-5.497787148E-3,4.727998368E-1
1.697088239E0,9.896016866E-2,4.685336351E-1,0.000000000E0,4.788704232E-1
1.699086989E0,1.014036313E-1,4.770857692E-1,6.108652451E-4,4.877436834E-1
1.701086403E0,1.007927656E-1,4.850270152E-1,0.000000000E0,4.953891269E-1
1.703084879E0,1.038470939E-1,4.911356568E-1,0.000000000E0,5.019944744E-1
1.705083590E0,1.032362282E-1,4.984660447E-1,-1.832595794E-3,5.090476156E-1
1.707083434E0,1.001819000E-1,5.027421117E-1,-5.497787148E-3,5.126560929E-1
1.709083629E0,9.590584040E-2,5.045747161E-1,-6.719517522E-3,5.136523399E-1
1.711083395E0,8.918632567E-2,5.161811113E-1,-1.099557430E-2,5.239446946E-1
1.713083239E0,3.848451003E-2,5.962044597E-1,-1.649336144E-2,5.976728589E-1
1.715082457E0,6.108652335E-3,6.603453159E-1,-2.015855350E-2,6.606811782E-1
1.717081911E0,-6.108652335E-3,6.768386960E-1,-1.954768784E-2,6.771484683E-1
1.719081325E0,-2.076941915E-2,7.116580009E-1,-2.138028294E-2,7.122819635E-1
1.721080661E0,-2.626720630E-2,7.312057018E-1,-1.954768784E-2,7.319384241E-1
1.723079371E0,-2.993239649E-2,7.403686643E-1,-2.076941915E-2,7.412645116E-1
1.725078473E0,-2.748893574E-2,7.324274182E-1,-2.504547499E-2,7.333708751E-1
1.727076325E0,-2.260201424E-2,7.330383062E-1,-3.176499158E-2,7.340742634E-1
1.729075036E0,-3.115412779E-2,7.232644558E-1,-4.459316283E-2,7.253072472E-1
1.731074645E0,-3.176499158E-2,7.061602473E-1,-5.864306539E-2,7.093026989E-1
1.733074606E0,-4.337143153E-2,6.927211881E-1,-7.330382615E-2,6.979378027E-1
1.735074411E0,-4.520402849E-2,6.774495840E-1,-8.368854225E-2,6.840943759E-1
1.737075739E0,-5.253441259E-2,6.713408828E-1,-9.712757170E-2,6.803618233E-1
1.739076090E0,-5.314527452E-2,6.633996367E-1,-1.020144969E-1,6.732981923E-1
1.741076168E0,-5.681046844E-2,6.627888083E-1,-1.111774743E-1,6.744455979E-1
1.743076403E0,-6.352998316E-2,6.676757336E-1,-1.172861308E-1,6.808692829E-1
1.745076364E0,-6.902777404E-2,6.762278080E-1,-1.233947799E-1,6.908510357E-1
1.747075582E0,-8.124507964E-2,6.866125464E-1,-1.343903542E-1,7.043424729E-1
1.749075739E0,-8.674286306E-2,6.976081133E-1,-1.447750628E-1,7.177333926E-1
1.751075426E0,-9.773843735E-2,7.067710757E-1,-1.569923609E-1,7.305646837E-1
1.753074176E0,-1.062905490E-1,7.153232098E-1,-1.588249654E-1,7.404122803E-1
1.755073161E0,-1.130100712E-1,7.195992470E-1,-1.667662114E-1,7.472652285E-1
1.757073668E0,-1.197295859E-1,7.195992470E-1,-1.759291887E-1,7.504061097E-1
1.759073629E0,-1.276708394E-1,7.208209634E-1,-1.863138974E-1,7.553777683E-1
1.761074020E0,-1.307251602E-1,7.134906054E-1,-1.924225539E-1,7.504560951E-1
1.763074528E0,-1.307251602E-1,7.116580009E-1,-1.924225539E-1,7.487139755E-1
1.765075114E0,-1.350012124E-1,7.012733221E-1,-1.942551434E-1,7.400977370E-1
1.767074411E0,-1.386664063E-1,6.872233748E-1,-1.948660165E-1,7.276517735E-1
1.769073903E0,-1.380555481E-1,6.743952036E-1,-1.966986060E-1,7.159319567E-1
1.771073668E0,-1.417207420E-1,6.499606371E-1,-1.991420686E-1,6.943998574E-1
1.773073903E0,-1.411098689E-1,6.298020482E-1,-1.985312104E-1,6.752608804E-1
1.775074489E0,-1.392772794E-1,6.035348773E-1,-2.034181207E-1,6.519443538E-1
1.777076090E0,-1.380555481E-1,5.760459304E-1,-2.052507252E-1,6.269099684E-1
1.779076911E0,-1.325577646E-1,5.418374538E-1,-2.040289938E-1,5.939589360E-1
1.781077575E0,-1.307251602E-1,5.100724697E-1,-2.040289938E-1,5.647041900E-1
1.783077340E0,-1.240056455E-1,4.801400900E-1,-2.028072625E-1,5.357636530E-1
1.785076520E0,-1.166752651E-1,4.471533597E-1,-1.985312104E-1,5.029650943E-1
1.787075856E0,-1.111774743E-1,4.337143302E-1,-1.966986060E-1,4.890387435E-1
1.789075153E0,-1.069014147E-1,4.037819207E-1,-1.942551434E-1,4.606547652E-1
1.791074254E0,-9.529497474E-2,3.787364662E-1,-1.869247705E-1,4.329703371E-1
1.793073864E0,-8.796459436E-2,3.518583775E-1,-1.814269722E-1,4.055340107E-1
1.795073864E0,-8.491026610E-2,3.298672438E-1,-1.789835095E-1,3.847820792E-1
1.797073278E0,-7.513642311E-2,3.103195429E-1,-1.765400618E-1,3.648425608E-1
1.799073082E0,-6.963863969E-2,2.938261926E-1,-1.722639948E-1,3.476467395E-1
1.801071637E0,-6.536258012E-2,2.773328125E-1,-1.698205322E-1,3.316998175E-1
1.803070114E0,-5.925392732E-2,2.614503205E-1,-1.649336219E-1,3.147545037E-1
1.805068356E0,-5.375614017E-2,2.455678284E-1,-1.637118906E-1,2.999914400E-1
1.807069411E0,-4.642575979E-2,2.327396572E-1,-1.649336219E-1,2.890089944E-1
1.809070348E0,-4.398229718E-2,2.150245607E-1,-1.673770845E-1,2.760164716E-1
1.811070778E0,-3.665191308E-2,2.089159191E-1,-1.667662114E-1,2.698151093E-1
1.813070153E0,-3.054326214E-2,1.966986060E-1,-1.661553532E-1,2.592890932E-1
1.815069645E0,-2.076941915E-2,1.820378453E-1,-1.618792862E-1,2.444873190E-1
1.817069879E0,-1.160643995E-2,1.728748679E-1,-1.612684280E-1,2.367022080E-1
1.819069176E0,-1.832595794E-3,1.588249654E-1,-1.582140923E-1,2.241883740E-1
1.821069606E0,7.941247895E-3,1.490511149E-1,-1.563815027E-1,2.161815734E-1
1.823069684E0,2.076941915E-2,1.404990107E-1,-1.569923609E-1,2.117024850E-1
1.825070348E0,3.237585723E-2,1.356120855E-1,-1.576032341E-1,2.104224637E-1
1.827071403E0,4.520402849E-2,1.331686229E-1,-1.576032341E-1,2.112251540E-1
1.829072418E0,6.047565863E-2,1.295034289E-1,-1.545489132E-1,2.105084558E-1
1.831073239E0,7.024950534E-2,1.313360333E-1,-1.466076523E-1,2.089927041E-1
1.833073395E0,7.696902007E-2,1.325577646E-1,-1.423316002E-1,2.091747486E-1
1.835074606E0,9.101892263E-2,1.386664063E-1,-1.337794960E-1,2.130956828E-1
1.837074996E0,1.038470939E-1,1.472185254E-1,-1.295034289E-1,2.218753056E-1
1.839075387E0,1.172861308E-1,1.618792862E-1,-1.295034289E-1,2.381849657E-1
1.841076246E0,1.288925707E-1,1.771509200E-1,-1.258382350E-1,2.526479856E-1
1.843078668E0,1.404990107E-1,1.948660165E-1,-1.191187203E-1,2.681454939E-1
1.845080036E0,1.557706445E-1,2.138028294E-1,-1.069014147E-1,2.853139604E-1
1.847080895E0,1.667662114E-1,2.382374406E-1,-9.957103431E-2,3.073799574E-1
1.849081168E0,1.777617931E-1,2.577851415E-1,-9.468411654E-2,3.271353179E-1
1.851081442E0,1.893682331E-1,2.840523422E-1,-9.285151958E-2,3.537901433E-1
1.853081754E0,1.979203373E-1,3.078760803E-1,-8.857546002E-2,3.765710462E-1
1.855082614E0,2.089159191E-1,3.359758854E-1,-8.368854225E-2,4.043877210E-1
1.857082184E0,2.138028294E-1,3.500257730E-1,-8.002334833E-2,4.178916462E-1
1.859081637E0,2.223549485E-1,3.781255782E-1,-7.696902007E-2,4.453592999E-1
1.861081129E0,2.321287990E-1,4.068362415E-1,-7.635815442E-2,4.745841068E-1
1.863080895E0,2.419026345E-1,4.355469346E-1,-7.696902007E-2,5.041252294E-1
1.865081481E0,2.535090744E-1,4.612032473E-1,-7.574728876E-2,5.317075680E-1
1.867082379E0,2.583959997E-1,4.862487316E-1,-7.513642311E-2,5.557443690E-1
1.869082887E0,2.626720667E-1,5.082398653E-1,-7.635815442E-2,5.771784326E-1
1.871083434E0,2.681698501E-1,5.277875662E-1,-7.513642311E-2,5.967581299E-1
1.873083903E0,2.712241709E-1,5.491678715E-1,-7.513642311E-2,6.170845842E-1
1.875084879E0,2.773328125E-1,5.601634383E-1,-7.513642311E-2,6.295570257E-1
1.877085270E0,2.748893499E-1,5.662720799E-1,-7.757988572E-2,6.342293449E-1
1.879085856E0,2.767219543E-1,5.736024380E-1,-8.368854225E-2,6.423383602E-1
1.881086989E0,2.761110961E-1,5.772676468E-1,-8.674286306E-2,6.457550602E-1
1.883087184E0,2.748893499E-1,5.809328556E-1,-9.101892263E-2,6.491005944E-1
1.885087340E0,2.718350291E-1,5.864306092E-1,-9.529497474E-2,6.533576928E-1
1.887088278E0,2.675589919E-1,5.845980644E-1,-1.020144969E-1,6.509605738E-1
1.889088278E0,2.675589919E-1,5.931501389E-1,-1.081231460E-1,6.596252846E-1
1.891088590E0,2.651155293E-1,5.974262357E-1,-1.154535338E-1,6.637272553E-1
1.893089645E0,2.632829249E-1,6.047565937E-1,-1.209513173E-1,6.705800902E-1
1.895090387E0,2.590068579E-1,6.181956530E-1,-1.282816976E-1,6.824270010E-1
1.897091676E0,2.565633953E-1,6.310238242E-1,-1.362229437E-1,6.946744078E-1
1.899093278E0,2.528982162E-1,6.456845403E-1,-1.435533315E-1,7.081480017E-1
1.901093551E0,2.461786866E-1,6.646214128E-1,-1.484402567E-1,7.241271144E-1
1.903093551E0,2.425135076E-1,6.829473376E-1,-1.551597714E-1,7.411507418E-1
1.905093434E0,2.400700450E-1,6.914994717E-1,-1.576032341E-1,7.487615944E-1
1.907093121E0,2.321287990E-1,7.104362845E-1,-1.649336219E-1,7.653800320E-1
1.909092418E0,2.278527319E-1,7.318165898E-1,-1.704314053E-1,7.851873996E-1
1.911092184E0,2.247984111E-1,7.483099103E-1,-1.802052408E-1,8.018578280E-1
1.913092418E0,2.168571651E-1,7.684684992E-1,-1.832595766E-1,8.192404633E-1
1.915092887E0,2.101376504E-1,7.831292152E-1,-1.875356287E-1,8.322372329E-1
1.917094176E0,2.064724565E-1,8.014551997E-1,-1.881465018E-1,8.487404895E-1
1.919095504E0,2.009746730E-1,8.191702962E-1,-1.905899495E-1,8.647284673E-1
1.921096832E0,1.924225539E-1,8.350527883E-1,-1.973094791E-1,8.793580778E-1
1.923098200E0,1.857030392E-1,8.472700715E-1,-1.991420686E-1,8.899492999E-1
1.925100192E0,1.820378453E-1,8.662069440E-1,-2.003637999E-1,9.075229470E-1
1.927101598E0,1.716531366E-1,8.759807348E-1,-1.997529417E-1,9.147175984E-1
1.929102614E0,1.661553532E-1,8.808676600E-1,-2.040289938E-1,9.193276164E-1
1.931102614E0,1.582140923E-1,8.863654733E-1,-2.089159191E-1,9.242950354E-1
1.933103239E0,1.496619880E-1,8.894197941E-1,-2.125810981E-1,9.266374717E-1
1.935104215E0,1.398881376E-1,8.924741149E-1,-2.156354338E-1,9.287504385E-1
1.937105036E0,1.288925707E-1,8.955284357E-1,-2.138028294E-1,9.296752787E-1
1.939106403E0,1.191187203E-1,8.961393237E-1,-2.125810981E-1,9.286795358E-1
1.941107653E0,1.069014147E-1,8.979719281E-1,-2.180788964E-1,9.302364760E-1
1.943108512E0,9.346238524E-2,9.028588533E-1,-2.260201424E-1,9.354006795E-1
1.945109176E0,8.246681094E-2,9.040805697E-1,-2.309070677E-1,9.367393049E-1
1.947110036E0,7.208210230E-2,9.071348906E-1,-2.327396572E-1,9.392855195E-1
1.949111637E0,6.047565863E-2,9.089674950E-1,-2.345722616E-1,9.406930201E-1
1.951113707E0,5.619960278E-2,9.077457786E-1,-2.388483137E-1,9.403240456E-1
1.953113903E0,5.131268129E-2,9.114109278E-1,-2.474004179E-1,9.457853019E-1
1.955114606E0,4.276056588E-2,9.150761366E-1,-2.553416789E-1,9.509953600E-1
1.957113981E0,4.031710699E-2,9.169087410E-1,-2.596177161E-1,9.538073532E-1
1.959113004E0,3.604105115E-2,9.193521738E-1,-2.596177161E-1,9.559857401E-1
1.961112536E0,3.298672289E-2,9.211847782E-1,-2.626720667E-1,9.584707268E-1
1.963112536E0,2.809980139E-2,9.181304574E-1,-2.700024247E-1,9.574207252E-1
1.965113278E0,2.626720630E-2,9.193521738E-1,-2.748893499E-1,9.599284037E-1
1.967114411E0,2.260201424E-2,9.156870246E-1,-2.761110961E-1,9.566770173E-1
1.969115192E0,1.527163107E-2,9.181304574E-1,-2.730567753E-1,9.579962224E-1
1.971115934E0,1.160643995E-2,9.181304574E-1,-2.736676335E-1,9.581191053E-1
1.973116950E0,7.941247895E-3,9.175195694E-1,-2.748893499E-1,9.578462185E-1
1.975116793E0,-4.276056774E-3,9.156870246E-1,-2.797762752E-1,9.574840865E-1
1.977116481E0,-3.054326167E-3,9.162978530E-1,-2.828305960E-1,9.589599733E-1
1.979116793E0,-1.221730467E-2,9.187413454E-1,-2.840523422E-1,9.617279529E-1
1.981117536E0,-2.015855350E-2,9.193521738E-1,-2.803871334E-1,9.613697162E-1
1.983118200E0,-2.932153270E-2,9.175195694E-1,-2.736676335E-1,9.579122539E-1
1.985118239E0,-3.726277873E-2,9.126327038E-1,-2.706133127E-1,9.526376707E-1
1.987118043E0,-4.337143153E-2,9.034696817E-1,-2.657263875E-1,9.427348832E-1
1.989118473E0,-5.070181563E-2,8.949176073E-1,-2.596177161E-1,9.331932043E-1
1.991118981E0,-5.192354694E-2,8.814785480E-1,-2.553416789E-1,9.191843441E-1
1.993119645E0,-5.803219974E-2,8.686503768E-1,-2.522873580E-1,9.064050553E-1
1.995120465E0,-6.414084882E-2,8.576548100E-1,-2.474004179E-1,8.949261357E-1
1.997120270E0,-6.719517708E-2,8.466592431E-1,-2.449569702E-1,8.839405993E-1
1.999119567E0,-6.841690838E-2,8.417723179E-1,-2.455678284E-1,8.795254782E-1
2.001119762E0,-7.513642311E-2,8.295549750E-1,-2.431243658E-1,8.677075521E-1
2.003119879E0,-8.002334833E-2,8.173376918E-1,-2.400700450E-1,8.556157229E-1
2.005120075E0,-8.185594529E-2,8.100073338E-1,-2.400700450E-1,8.487908476E-1
2.007119293E0,-8.368854225E-2,8.032878041E-1,-2.357939780E-1,8.413524044E-1
2.009118981E0,-8.185594529E-2,8.026769161E-1,-2.302961946E-1,8.390631470E-1
2.011118239E0,-8.429940045E-2,7.971791625E-1,-2.180788964E-1,8.307583350E-1
2.013117770E0,-8.613199741E-2,7.922922373E-1,-2.064724565E-1,8.232718782E-1
2.015117067E0,-8.735372871E-2,7.837401032E-1,-2.003637999E-1,8.136491109E-1
2.017116559E0,-8.918632567E-2,7.733554244E-1,-1.930334121E-1,8.020565512E-1
2.019115582E0,-9.224065393E-2,7.562511563E-1,-1.887573600E-1,7.848907508E-1
2.021115700E0,-9.162978828E-2,7.458664775E-1,-1.771509200E-1,7.720720619E-1
2.023115778E0,-9.407325089E-2,7.379252315E-1,-1.728748679E-1,7.637205927E-1
2.025115856E0,-9.529497474E-2,7.238753438E-1,-1.673770845E-1,7.490605676E-1
2.027116676E0,-9.651670605E-2,7.134906054E-1,-1.679879427E-1,7.393269016E-1
2.029116754E0,-9.957103431E-2,6.982190013E-1,-1.667662114E-1,7.247310770E-1
2.031117145E0,-9.590584040E-2,6.890559793E-1,-1.606575549E-1,7.140076489E-1
2.033117340E0,-9.468411654E-2,6.853908300E-1,-1.514945775E-1,7.082910975E-1
2.035117614E0,-9.101892263E-2,6.774495840E-1,-1.466076523E-1,6.990823892E-1
2.037117770E0,-8.735372871E-2,6.792821288E-1,-1.441642046E-1,6.998844207E-1
2.039118395E0,-8.429940045E-2,6.756169796E-1,-1.404990107E-1,6.952011680E-1
2.041118786E0,-8.124507964E-2,6.798930168E-1,-1.362229437E-1,6.981489581E-1
2.043118981E0,-7.208210230E-2,6.811147332E-1,-1.288925707E-1,6.969407465E-1
2.045118629E0,-6.475171447E-2,6.847799420E-1,-1.258382350E-1,6.992507525E-1
2.047118356E0,-5.925392732E-2,6.878342628E-1,-1.227839142E-1,7.012152955E-1
2.049118590E0,-5.009094998E-2,6.933320761E-1,-1.233947799E-1,7.060061917E-1
2.051118004E0,-3.787364438E-2,7.073819637E-1,-1.246165112E-1,7.192725008E-1
2.053118043E0,-2.993239649E-2,7.324274182E-1,-1.264491081E-1,7.438650740E-1
2.055117614E0,-1.832595654E-2,7.617489696E-1,-1.227839142E-1,7.717986932E-1
2.057116950E0,-4.886921961E-3,7.929030657E-1,-1.062905490E-1,8.000105214E-1
2.059116129E0,3.665191587E-3,8.179485798E-1,-9.101892263E-2,8.230053202E-1
2.061115504E0,1.221730467E-2,8.362745047E-1,-7.880161703E-2,8.400678571E-1
2.063115543E0,1.954768784E-2,8.448266387E-1,-6.902777404E-2,8.478673217E-1
2.065115661E0,2.443460934E-2,8.436049223E-1,-5.497787148E-2,8.457475282E-1
2.067116364E0,2.687807009E-2,8.387179971E-1,-4.642575979E-2,8.404318297E-1
2.069116364E0,3.115412779E-2,8.374962807E-1,-4.153883830E-2,8.391043290E-1
2.071116715E0,2.871066704E-2,8.295549750E-1,-3.543018550E-2,8.308074729E-1
2.073116871E0,3.359758854E-2,8.258898258E-1,-3.420845419E-2,8.272804970E-1
2.075116051E0,3.481931984E-2,8.173376918E-1,-3.359758854E-2,8.187686397E-1
2.077115192E0,3.726277873E-2,8.118399382E-1,-3.054326214E-2,8.132684002E-1
2.079114684E0,4.214970022E-2,8.075638413E-1,-2.687807009E-2,8.091096253E-1
2.081114020E0,4.825835302E-2,7.996225953E-1,-2.321287990E-2,8.014137517E-1
2.083113239E0,5.070181563E-2,7.904596329E-1,-2.076941915E-2,7.923562798E-1
2.085112223E0,5.314527452E-2,7.782423496E-1,-2.321287990E-2,7.804001619E-1
2.087111325E0,5.681046844E-2,7.690793276E-1,-2.321287990E-2,7.715239978E-1
2.089110934E0,6.108652428E-2,7.525860071E-1,-2.748893574E-2,7.555613166E-1
2.091110309E0,6.047565863E-2,7.428121567E-1,-2.993239649E-2,7.458707353E-1
2.093110504E0,6.352998316E-2,7.342600226E-1,-3.420845419E-2,7.377967592E-1
2.095109918E0,6.475171447E-2,7.177666426E-1,-3.970624134E-2,7.217744269E-1
2.097108746E0,6.414084882E-2,6.988298297E-1,-4.214970022E-2,7.030318461E-1
2.099107614E0,6.475171447E-2,6.805039048E-1,-4.703662544E-2,6.851939821E-1
2.101107184E0,6.597344577E-2,6.621779203E-1,-5.070181563E-2,6.673850222E-1
2.103106715E0,6.841690838E-2,6.432411075E-1,-5.619960278E-2,6.493060842E-1
2.105105856E0,6.414084882E-2,6.291912198E-1,-5.681046844E-2,6.349984794E-1
2.107105817E0,6.719517708E-2,6.139195561E-1,-5.803219974E-2,6.203064964E-1
2.109105973E0,7.024950534E-2,6.004805565E-1,-5.803219974E-2,6.073546146E-1
2.111107028E0,7.208210230E-2,5.907067060E-1,-6.536258012E-2,5.986672773E-1
2.113107340E0,7.452555746E-2,5.845980644E-1,-7.269296050E-2,5.937956064E-1
2.115107731E0,7.574728876E-2,5.766568184E-1,-7.880161703E-2,5.869245546E-1
2.117108043E0,7.696902007E-2,5.736024380E-1,-8.124507964E-2,5.844183004E-1
2.119108434E0,7.757988572E-2,5.760459304E-1,-8.552113175E-2,5.875043971E-1
2.121108825E0,8.185594529E-2,5.723807216E-1,-8.979719132E-2,5.851355585E-1
2.123109176E0,8.491026610E-2,5.729916096E-1,-8.735372871E-2,5.857984396E-1
2.125109684E0,8.674286306E-2,5.693264008E-1,-8.552113175E-2,5.822119364E-1
2.127109684E0,8.613199741E-2,5.693264008E-1,-8.796459436E-2,5.824852285E-1
2.129109645E0,8.918632567E-2,5.705481172E-1,-9.224065393E-2,5.847971383E-1
2.131109371E0,8.918632567E-2,5.699372888E-1,-9.896016866E-2,5.852997769E-1
2.133109293E0,8.979719132E-2,5.699372888E-1,-9.896016866E-2,5.853931702E-1
2.135109957E0,9.346238524E-2,5.668829679E-1,-9.712757170E-2,5.826879800E-1
2.137109996E0,9.224065393E-2,5.662720799E-1,-9.590584040E-2,5.816960864E-1
2.139110075E0,9.101892263E-2,5.583308339E-1,-9.651670605E-2,5.738756302E-1
2.141110973E0,9.162978828E-2,5.589417219E-1,-1.044579595E-1,5.759542794E-1
2.143110856E0,9.407325089E-2,5.467243791E-1,-1.093448773E-1,5.654322465E-1
2.145110895E0,9.346238524E-2,5.381723046E-1,-1.087340117E-1,5.569449993E-1
2.147110661E0,9.346238524E-2,5.296201706E-1,-1.105666086E-1,5.490516528E-1
2.149109879E0,9.101892263E-2,5.229006410E-1,-1.099557430E-1,5.420330156E-1
2.151110426E0,9.407325089E-2,5.131267905E-1,-1.142318025E-1,5.340391225E-1
2.153110543E0,9.407325089E-2,5.033529401E-1,-1.160643995E-1,5.250570480E-1
2.155111325E0,9.162978828E-2,4.935791194E-1,-1.172861308E-1,5.155311840E-1
2.157111598E0,9.346238524E-2,4.862487316E-1,-1.148426682E-1,5.082931092E-1
2.159111754E0,9.346238524E-2,4.825835526E-1,-1.166752651E-1,5.052080959E-1
2.161111559E0,9.407325089E-2,4.764748812E-1,-1.185078546E-1,4.999221945E-1
2.163111950E0,9.468411654E-2,4.740314186E-1,-1.172861308E-1,4.974202491E-1
2.165113356E0,9.712757170E-2,4.715879560E-1,-1.154535338E-1,4.951348138E-1
2.167114137E0,1.001819000E-1,4.697553813E-1,-1.136209369E-1,4.935749676E-1
2.169114528E0,1.032362282E-1,4.691445231E-1,-1.136209369E-1,4.936233581E-1
2.171114840E0,1.032362282E-1,4.630358517E-1,-1.142318025E-1,4.879639572E-1
2.173115856E0,1.050688252E-1,4.630358517E-1,-1.185078546E-1,4.893728329E-1
2.175117887E0,1.069014147E-1,4.563163519E-1,-1.191187203E-1,4.835719129E-1
2.177118942E0,1.062905490E-1,4.483750761E-1,-1.233947799E-1,4.770368553E-1
2.179120817E0,1.099557430E-1,4.398229718E-1,-1.240056455E-1,4.700126722E-1
2.181124137E0,1.081231460E-1,4.312708676E-1,-1.240056455E-1,4.615870189E-1
2.183127379E0,1.093448773E-1,4.263839424E-1,-1.258382350E-1,4.578152792E-1
2.185130934E0,1.062905490E-1,4.208861589E-1,-1.240056455E-1,4.514645498E-1
2.187133825E0,1.075122803E-1,4.147774875E-1,-1.233947799E-1,4.458985605E-1
2.189135895E0,1.044579595E-1,4.086688459E-1,-1.227839142E-1,4.393148990E-1
2.191137418E0,1.062905490E-1,4.043927789E-1,-1.209513173E-1,4.352705154E-1
2.193138668E0,1.038470939E-1,3.988949955E-1,-1.166752651E-1,4.283859869E-1
2.195139411E0,1.032362282E-1,3.958406746E-1,-1.166752651E-1,4.253947296E-1
2.197139957E0,1.020144969E-1,3.921754956E-1,-1.136209369E-1,4.208542435E-1
2.199142340E0,1.014036313E-1,3.909537494E-1,-1.117883399E-1,4.190753674E-1
2.201144293E0,1.007927656E-1,3.903428912E-1,-1.117883399E-1,4.183579655E-1
2.203145270E0,9.896016866E-2,3.909537494E-1,-1.087340117E-1,4.176853295E-1
2.205146246E0,1.001819000E-1,3.903428912E-1,-1.099557430E-1,4.177250905E-1
2.207147379E0,9.407325089E-2,3.909537494E-1,-1.087340117E-1,4.165545535E-1
2.209149098E0,9.162978828E-2,3.866777122E-1,-1.087340117E-1,4.119936365E-1
2.211150153E0,9.040805697E-2,3.854559660E-1,-1.062905490E-1,4.099360917E-1
2.213150817E0,8.429940045E-2,3.781255782E-1,-1.032362282E-1,4.009277498E-1
2.215151481E0,7.819075137E-2,3.689626157E-1,-1.007927656E-1,3.903926062E-1
2.217150973E0,7.269296050E-2,3.573561609E-1,-9.896016866E-2,3.778634769E-1
2.219150973E0,6.780604273E-2,3.500257730E-1,-9.896016866E-2,3.700119136E-1
2.221151090E0,6.230825558E-2,3.390302062E-1,-9.957103431E-2,3.588010456E-1
2.223152223E0,5.986479297E-2,3.280346394E-1,-9.773843735E-2,3.474813955E-1
2.225153668E0,5.314527452E-2,3.237585723E-1,-9.101892263E-2,3.404827127E-1
2.227155739E0,5.131268129E-2,3.152064681E-1,-8.246681094E-2,3.298315990E-1
2.229157262E0,4.886921868E-2,3.103195429E-1,-7.330382615E-2,3.225831213E-1
2.231158551E0,4.398229718E-2,3.042109013E-1,-6.963863969E-2,3.151638543E-1
2.233158981E0,3.787364438E-2,2.968805134E-1,-6.963863969E-2,3.072816173E-1
2.235159489E0,3.543018550E-2,2.919935882E-1,-6.902777404E-2,3.021264424E-1
2.237160504E0,3.237585723E-2,2.889392674E-1,-6.719517708E-2,2.984112736E-1
2.239160543E0,2.932153270E-2,2.785545588E-1,-6.352998316E-2,2.872080313E-1
2.241162067E0,2.626720630E-2,2.675589919E-1,-5.986479297E-2,2.754297982E-1
2.243164020E0,2.260201424E-2,2.553416789E-1,-5.925392732E-2,2.630993195E-1
2.245166950E0,1.893682219E-2,2.425135076E-1,-6.414084882E-2,2.515660015E-1
2.247169137E0,1.343903504E-2,2.284636050E-1,-6.963863969E-2,2.392190766E-1
2.249170973E0,8.552113548E-3,2.162462920E-1,-7.513642311E-2,2.290874932E-1
2.251173004E0,1.832595794E-3,2.040289938E-1,-7.513642311E-2,2.174319912E-1
2.253175426E0,3.665191587E-3,1.912008226E-1,-7.147123665E-2,2.041551514E-1
2.255177106E0,6.108652451E-4,1.844813079E-1,-7.147123665E-2,1.978430281E-1
2.257179371E0,-1.832595794E-3,1.753183305E-1,-7.574728876E-2,1.909909086E-1
2.259181442E0,-1.221730490E-3,1.734857261E-1,-7.757988572E-2,1.900458588E-1
2.261183942E0,0.000000000E0,1.704314053E-1,-8.002334833E-2,1.882832977E-1
2.263185739E0,0.000000000E0,1.667662114E-1,-8.185594529E-2,1.857723474E-1
2.265187809E0,2.443460980E-3,1.600466967E-1,-8.307767659E-2,1.803408328E-1
2.267189371E0,3.665191587E-3,1.582140923E-1,-8.429940045E-2,1.793084536E-1
2.269191129E0,5.497787148E-3,1.557706445E-1,-8.796459436E-2,1.789762253E-1
2.271192575E0,8.552113548E-3,1.496619880E-1,-8.979719132E-2,1.747437692E-1
2.273194645E0,1.038470957E-2,1.423316002E-1,-9.101892263E-2,1.692647952E-1
2.275197536E0,8.552113548E-3,1.374446750E-1,-9.773843735E-2,1.688697115E-1
2.277199411E0,1.282817032E-2,1.343903542E-1,-1.056796908E-1,1.714454033E-1
2.279200661E0,1.588249579E-2,1.362229437E-1,-1.099557430E-1,1.757817097E-1
2.281201325E0,1.893682219E-2,1.374446750E-1,-1.075122803E-1,1.755235948E-1
2.283202770E0,1.710422710E-2,1.417207420E-1,-1.044579595E-1,1.768863720E-1
2.285204176E0,2.382374369E-2,1.435533315E-1,-1.032362282E-1,1.784176240E-1
2.287205582E0,2.565634064E-2,1.533271819E-1,-1.038470939E-1,1.869537147E-1
2.289206168E0,2.993239649E-2,1.618792862E-1,-1.069014147E-1,1.962874528E-1
2.291206598E0,2.932153270E-2,1.740965992E-1,-1.062905490E-1,2.060753720E-1
2.293206950E0,3.359758854E-2,1.863138974E-1,-1.038470939E-1,2.159302786E-1
2.295207809E0,3.359758854E-2,1.960877478E-1,-1.020144969E-1,2.235758493E-1
2.297208395E0,3.726277873E-2,2.064724565E-1,-1.020144969E-1,2.332945510E-1
2.299209411E0,3.787364438E-2,2.162462920E-1,-1.020144969E-1,2.420822780E-1
2.301209996E0,3.909537569E-2,2.235766798E-1,-1.056796908E-1,2.503660864E-1
2.303210231E0,3.909537569E-2,2.284636050E-1,-1.075122803E-1,2.555052987E-1
2.305210817E0,3.726277873E-2,2.309070677E-1,-1.069014147E-1,2.571662906E-1
2.307211793E0,3.970624134E-2,2.327396572E-1,-1.081231460E-1,2.596823989E-1
2.309213317E0,4.092797264E-2,2.406809032E-1,-1.075122803E-1,2.667607290E-1
2.311214059E0,4.031710699E-2,2.486221492E-1,-1.075122803E-1,2.738564088E-1
2.313215036E0,4.337143153E-2,2.596177161E-1,-1.087340117E-1,2.847903174E-1
2.315216364E0,4.825835302E-2,2.767219543E-1,-1.117883399E-1,3.023252249E-1
2.317216559E0,5.681046844E-2,2.932153046E-1,-1.081231460E-1,3.176369923E-1
2.319216911E0,6.291911751E-2,3.158173263E-1,-1.056796908E-1,3.389212239E-1
2.321217457E0,7.086037099E-2,3.359758854E-1,-1.014036313E-1,3.580274908E-1
2.323217418E0,7.757988572E-2,3.591887653E-1,-9.957103431E-2,3.807224693E-1
2.325217848E0,8.613199741E-2,3.824016452E-1,-1.001819000E-1,4.045814532E-1
2.327218395E0,9.773843735E-2,4.068362415E-1,-1.007927656E-1,4.303808907E-1
2.329218707E0,1.062905490E-1,4.251621962E-1,-9.957103431E-2,4.494162489E-1
2.331219762E0,1.111774743E-1,4.367686510E-1,-9.712757170E-2,4.610434366E-1
2.333220739E0,1.221730486E-1,4.544837475E-1,-9.712757170E-2,4.805366747E-1
2.335222067E0,1.337794960E-1,4.709770977E-1,-9.651670605E-2,4.990309156E-1
2.337223278E0,1.459967941E-1,4.862487316E-1,-9.468411654E-2,5.164474560E-1
2.339223473E0,1.569923609E-1,5.002986193E-1,-9.285151958E-2,5.325098258E-1
2.341224293E0,1.692096740E-1,5.106833577E-1,-8.552113175E-2,5.447414704E-1
2.343225114E0,1.814269722E-1,5.204572082E-1,-8.246681094E-2,5.573080178E-1
2.345225309E0,1.930334121E-1,5.296201706E-1,-8.002334833E-2,5.693532819E-1
2.347225192E0,2.076941878E-1,5.375614166E-1,-7.757988572E-2,5.814875673E-1
2.349226676E0,2.174680233E-1,5.467243791E-1,-7.452555746E-2,5.930884812E-1
2.351227575E0,2.309070677E-1,5.516113043E-1,-7.147123665E-2,6.022468286E-1
2.353227379E0,2.419026345E-1,5.503895879E-1,-6.902777404E-2,6.051532175E-1
2.355227575E0,2.504547536E-1,5.503895879E-1,-7.024950534E-2,6.087620841E-1
2.357228004E0,2.608394623E-1,5.412266254E-1,-7.391469181E-2,6.053320302E-1
2.359228668E0,2.718350291E-1,5.351179838E-1,-7.819075137E-2,6.052762454E-1
2.361229411E0,2.791654170E-1,5.216789246E-1,-8.063421398E-2,5.971466376E-1
2.363230036E0,2.871066630E-1,5.125159621E-1,-8.429940045E-2,5.934721866E-1
2.365231129E0,2.907718420E-1,5.027421117E-1,-8.613199741E-2,5.871257241E-1
2.367232965E0,2.944370508E-1,4.886921942E-1,-9.224065393E-2,5.779459973E-1
2.369234411E0,2.974913716E-1,4.752531648E-1,-9.468411654E-2,5.686226945E-1
2.371235582E0,2.987131178E-1,4.630358517E-1,-9.896016866E-2,5.598435868E-1
2.373236481E0,2.944370508E-1,4.520402849E-1,-1.001819000E-1,5.486984683E-1
2.375237028E0,2.913827300E-1,4.398229718E-1,-1.001819000E-1,5.370144830E-1
2.377236754E0,2.907718420E-1,4.288274050E-1,-1.020144969E-1,5.280607588E-1
2.379237770E0,2.889392674E-1,4.263839424E-1,-1.069014147E-1,5.260390470E-1
2.381237145E0,2.840523422E-1,4.172209501E-1,-1.093448773E-1,5.164449211E-1
2.383236793E0,2.797762752E-1,4.043927789E-1,-1.117883399E-1,5.042865422E-1
2.385237379E0,2.755002379E-1,3.970624208E-1,-1.117883399E-1,4.960398977E-1
2.387237106E0,2.693915665E-1,3.866777122E-1,-1.142318025E-1,4.849127488E-1
2.389238200E0,2.614503205E-1,3.738495409E-1,-1.203404516E-1,4.718067122E-1
2.391238903E0,2.535090744E-1,3.683517575E-1,-1.264491081E-1,4.646926350E-1
2.393239801E0,2.480112910E-1,3.549126983E-1,-1.301143020E-1,4.521087872E-1
2.395240700E0,2.406809032E-1,3.475823104E-1,-1.301143020E-1,4.423465737E-1
2.397241676E0,2.321287990E-1,3.371976018E-1,-1.258382350E-1,4.282770871E-1
2.399242536E0,2.272418737E-1,3.298672438E-1,-1.233947799E-1,4.191390454E-1
2.401243551E0,2.235766798E-1,3.274237812E-1,-1.246165112E-1,4.155985311E-1
2.403244879E0,2.144137025E-1,3.219259977E-1,-1.221730486E-1,4.056301735E-1
2.405245387E0,2.107485086E-1,3.133738637E-1,-1.197295859E-1,3.961733031E-1
2.407245192E0,2.052507252E-1,3.036000133E-1,-1.148426682E-1,3.840438343E-1
2.409245661E0,2.003637999E-1,2.993239760E-1,-1.123992056E-1,3.773248950E-1
2.411246442E0,1.966986060E-1,2.895501256E-1,-1.069014147E-1,3.660020892E-1
2.413246246E0,1.936442852E-1,2.846632004E-1,-9.896016866E-2,3.582238990E-1
2.415247340E0,1.887573600E-1,2.767219543E-1,-9.101892263E-2,3.471150029E-1
2.417248161E0,1.881465018E-1,2.712241709E-1,-8.307767659E-2,3.403873637E-1
2.419249528E0,1.795943826E-1,2.626720667E-1,-7.391469181E-2,3.266713005E-1
2.421250348E0,1.783726513E-1,2.571742535E-1,-6.658431143E-2,3.199826088E-1
2.423251754E0,1.759291887E-1,2.547308207E-1,-5.619960278E-2,3.146383095E-1
2.425252731E0,1.722639948E-1,2.498438805E-1,-5.253441259E-2,3.079881703E-1
2.427254840E0,1.722639948E-1,2.474004179E-1,-4.459316283E-2,3.047464534E-1
2.429256207E0,1.698205322E-1,2.443460971E-1,-3.787364438E-2,2.999640666E-1
2.431257262E0,1.661553532E-1,2.431243658E-1,-2.871066704E-2,2.958738938E-1
2.433258668E0,1.710422635E-1,2.443460971E-1,-1.832595654E-2,2.988248848E-1
2.435259957E0,1.710422635E-1,2.498438805E-1,-1.160643995E-2,3.030051650E-1
2.437261442E0,1.722639948E-1,2.547308207E-1,-1.832595794E-3,3.075159074E-1
2.439263590E0,1.771509200E-1,2.693915665E-1,6.719517522E-3,3.224894052E-1
2.441264371E0,1.765400618E-1,2.803871334E-1,1.649336144E-2,3.317459404E-1
2.443265231E0,1.747074574E-1,2.993239760E-1,2.443460934E-2,3.474400501E-1
2.445266090E0,1.698205322E-1,3.158173263E-1,2.871066704E-2,3.597275346E-1
2.447267067E0,1.655444801E-1,3.310889602E-1,3.543018550E-2,3.718604207E-1
2.449267536E0,1.643227488E-1,3.408628106E-1,3.787364438E-2,3.802944049E-1
2.451268786E0,1.539380401E-1,3.549126983E-1,4.337143153E-2,3.892827053E-1
2.453269645E0,1.429424733E-1,3.616322279E-1,4.764748737E-2,3.917661317E-1
2.455270895E0,1.325577646E-1,3.646865487E-1,4.642575979E-2,3.907981460E-1
2.457271246E0,1.221730486E-1,3.616322279E-1,4.459316283E-2,3.843080434E-1
2.459272496E0,1.069014147E-1,3.543018401E-1,4.276056588E-2,3.725401620E-1
2.461273395E0,9.529497474E-2,3.451388776E-1,4.459316283E-2,3.608192445E-1
2.463274254E0,8.063421398E-2,3.316998184E-1,4.031710699E-2,3.437326215E-1
2.465274957E0,6.536258012E-2,3.188716471E-1,3.543018550E-2,3.274243306E-1
2.467275270E0,5.253441259E-2,3.078760803E-1,2.748893574E-2,3.135333904E-1
2.469276364E0,3.970624134E-2,2.919935882E-1,2.015855350E-2,2.953696133E-1
2.471276207E0,3.054326214E-2,2.816088796E-1,1.343903504E-2,2.835790182E-1
2.473276637E0,2.199114859E-2,2.773328125E-1,1.038470957E-2,2.783970936E-1
2.475276129E0,1.343903504E-2,2.632829249E-1,5.497787148E-3,2.636830140E-1
2.477276051E0,4.276056774E-3,2.516764700E-1,-1.221730490E-3,2.517157581E-1
2.479276598E0,-1.832595794E-3,2.400700450E-1,-1.038470957E-2,2.403015337E-1
2.481276871E0,-6.719517522E-3,2.272418737E-1,-1.527163107E-2,2.278535578E-1
2.483277457E0,-1.160643995E-2,2.174680233E-1,-2.015855350E-2,2.187085227E-1
2.485278395E0,-1.649336144E-2,2.095267773E-1,-2.687807009E-2,2.118866018E-1
2.487278356E0,-1.588249579E-2,1.997529417E-1,-3.176499158E-2,2.028854507E-1
2.489278668E0,-1.343903504E-2,1.936442852E-1,-3.726277873E-2,1.976543233E-1
2.491279801E0,-1.038470957E-2,1.832595766E-1,-3.909537569E-2,1.876708901E-1
2.493279879E0,-5.497787148E-3,1.802052408E-1,-4.031710699E-2,1.847420461E-1
2.495279371E0,-1.221730490E-3,1.765400618E-1,-4.153883830E-2,1.813652699E-1
2.497278551E0,2.443460980E-3,1.765400618E-1,-4.276056588E-2,1.816613055E-1
2.499277340E0,1.404990070E-2,1.789835095E-1,-4.398229718E-2,1.848430114E-1
2.501277340E0,2.260201424E-2,1.844813079E-1,-4.886921868E-2,1.921780542E-1
2.503277457E0,3.176499158E-2,1.887573600E-1,-4.825835302E-2,1.974011760E-1
2.505276793E0,3.909537569E-2,2.003637999E-1,-4.642575979E-2,2.093548468E-1
2.507277028E0,4.825835302E-2,2.125810981E-1,-4.276056588E-2,2.221442277E-1
2.509277848E0,5.619960278E-2,2.290744632E-1,-4.398229718E-2,2.399332147E-1
2.511279411E0,6.719517708E-2,2.467895597E-1,-4.642575979E-2,2.599531300E-1
2.513280934E0,7.086037099E-2,2.675589919E-1,-4.764748737E-2,2.808545698E-1
2.515281871E0,8.246681094E-2,2.883284092E-1,-4.642575979E-2,3.034623496E-1
2.517282457E0,8.491026610E-2,3.152064681E-1,-4.581489414E-2,3.296420412E-1
2.519283121E0,9.224065393E-2,3.347541690E-1,-4.092797264E-2,3.496337953E-1
2.521283707E0,9.285151958E-2,3.481931984E-1,-3.848451003E-2,3.624099414E-1
2.523284332E0,9.285151958E-2,3.695734739E-1,-3.420845419E-2,3.825913952E-1
2.525285465E0,9.224065393E-2,3.897320330E-1,-2.932153270E-2,4.015708506E-1
2.527285582E0,8.979719132E-2,4.080579877E-1,-2.748893574E-2,4.187248482E-1
2.529285778E0,8.735372871E-2,4.245513380E-1,-2.565634064E-2,4.342035931E-1
2.531286012E0,8.185594529E-2,4.404338300E-1,-2.260201424E-2,4.485456559E-1
2.533285817E0,7.941248268E-2,4.526511431E-1,-1.832595654E-2,4.599296038E-1
2.535286325E0,7.513642311E-2,4.630358517E-1,-9.773843922E-3,4.691942136E-1
2.537286871E0,7.086037099E-2,4.685336351E-1,-3.665191587E-3,4.738759258E-1
2.539287536E0,6.719517708E-2,4.783074856E-1,-2.443460980E-3,4.830105724E-1
2.541288161E0,6.414084882E-2,4.874704778E-1,-1.221730490E-3,4.916736803E-1
2.543288551E0,6.475171447E-2,5.002986193E-1,-6.108652451E-4,5.044718685E-1
2.545288746E0,5.864306539E-2,5.033529401E-1,4.886921961E-3,5.067810902E-1
2.547290153E0,5.681046844E-2,5.094616413E-1,1.221730467E-2,5.127649128E-1
2.549291754E0,5.009094998E-2,5.174028873E-1,1.832595654E-2,5.201448758E-1
2.551294137E0,4.214970022E-2,5.222898126E-1,2.076941915E-2,5.243992890E-1
2.553297614E0,3.543018550E-2,5.271766782E-1,2.076941915E-2,5.287739752E-1
2.555300465E0,2.871066704E-2,5.265658498E-1,2.321287990E-2,5.278586310E-1
2.557302496E0,2.138028294E-2,5.253441334E-1,3.054326214E-2,5.266654211E-1
2.559305934E0,1.099557430E-2,5.265658498E-1,3.665191308E-2,5.279544105E-1
2.561308864E0,5.497787148E-3,5.241223574E-1,3.481931984E-2,5.253064403E-1
2.563311129E0,-1.221730490E-3,5.143485069E-1,3.481931984E-2,5.155271712E-1
2.565313278E0,-6.719517522E-3,5.033529401E-1,3.970624134E-2,5.049613053E-1
2.567316051E0,-1.038470957E-2,4.990769029E-1,4.337143153E-2,5.010655429E-1
2.569318356E0,-1.466076635E-2,4.929682612E-1,4.764748737E-2,4.954825201E-1
2.571319996E0,-1.893682219E-2,4.807509482E-1,5.009094998E-2,4.837242817E-1
2.573320856E0,-2.504547499E-2,4.703662395E-1,5.131268129E-2,4.738192339E-1
2.575322145E0,-2.809980139E-2,4.587597847E-1,5.192354694E-2,4.625431803E-1
2.577323043E0,-3.359758854E-2,4.410447180E-1,5.314527452E-2,4.455038288E-1
2.579323981E0,-3.237585723E-2,4.251621962E-1,5.253441259E-2,4.296172176E-1
2.581325192E0,-3.298672289E-2,4.166100919E-1,4.764748737E-2,4.206214160E-1
2.583327653E0,-3.176499158E-2,4.007275999E-1,4.031710699E-2,4.040013528E-1
2.585330387E0,-2.626720630E-2,3.885102868E-1,3.420845419E-2,3.908969524E-1
2.587332223E0,-2.138028294E-2,3.860668242E-1,2.932153270E-2,3.877685670E-1
2.589335504E0,-1.404990070E-2,3.842342496E-1,2.504547499E-2,3.853058968E-1
2.591337887E0,-8.552113548E-3,3.903428912E-1,2.382374369E-2,3.911627310E-1
2.593339879E0,0.000000000E0,3.933972120E-1,1.771509275E-2,3.937958747E-1
2.595341364E0,9.773843922E-3,3.976732790E-1,1.038470957E-2,3.979288970E-1
2.597342301E0,2.382374369E-2,4.202753007E-1,2.443460980E-3,4.209570877E-1
2.599344254E0,3.359758854E-2,4.282165468E-1,-4.276056774E-3,4.295538308E-1
2.601345739E0,3.909537569E-2,4.318817258E-1,-1.221730467E-2,4.338197045E-1
2.603346676E0,4.337143153E-2,4.477642179E-1,-2.015855350E-2,4.503112736E-1
2.605349606E0,5.009094998E-2,4.624249935E-1,-2.748893574E-2,4.659416482E-1
2.607352184E0,4.948008433E-2,4.599815309E-1,-3.787364438E-2,4.641828309E-1
2.609353512E0,5.192354694E-2,4.685336351E-1,-4.642575979E-2,4.736825658E-1
2.611354996E0,4.581489414E-2,4.495968223E-1,-5.619960278E-2,4.554060852E-1
2.613356481E0,4.153883830E-2,4.563163519E-1,-6.291911751E-2,4.625028686E-1
2.615357770E0,3.726277873E-2,4.520402849E-1,-7.086037099E-2,4.590752945E-1
2.617358629E0,3.665191308E-2,4.355469346E-1,-7.330382615E-2,4.431906428E-1
2.619359606E0,2.382374369E-2,4.123340547E-1,-7.696902007E-2,4.201323285E-1
2.621361403E0,1.343903504E-2,3.872885704E-1,-8.063421398E-2,3.958218297E-1
2.623362340E0,6.108652335E-3,3.915646076E-1,-8.613199741E-2,4.009724162E-1
2.625363786E0,-1.160643995E-2,4.398229718E-1,-9.101892263E-2,4.492921102E-1
2.627364450E0,-1.893682219E-2,4.514294267E-1,-9.468411654E-2,4.616407829E-1
2.629365387E0,-2.993239649E-2,4.422664344E-1,-9.162978828E-2,4.526494952E-1
2.631366051E0,-3.970624134E-2,4.251621962E-1,-9.224065393E-2,4.368613245E-1
2.633367379E0,-5.070181563E-2,4.178318381E-1,-9.285151958E-2,4.310168486E-1
2.635367887E0,-6.108652428E-2,4.172209501E-1,-9.285151958E-2,4.317711076E-1
2.637369020E0,-7.330382615E-2,4.178318381E-1,-9.224065393E-2,4.341258275E-1
2.639369840E0,-8.063421398E-2,4.227187634E-1,-8.674286306E-2,4.389958470E-1
2.641370192E0,-9.224065393E-2,4.245513380E-1,-8.307767659E-2,4.423280199E-1
2.643370739E0,-1.081231460E-1,4.245513380E-1,-7.574728876E-2,4.446033120E-1
2.645371950E0,-1.203404516E-1,4.190535545E-1,-6.963863969E-2,4.415169827E-1
2.647371950E0,-1.307251602E-1,4.129449129E-1,-6.414084882E-2,4.378659808E-1
2.649372965E0,-1.398881376E-1,4.056145251E-1,-5.619960278E-2,4.327241955E-1
2.651373903E0,-1.521054506E-1,3.952298164E-1,-4.642575979E-2,4.260258526E-1
2.653375192E0,-1.600466967E-1,3.860668242E-1,-3.726277873E-2,4.195843807E-1
2.655375817E0,-1.655444801E-1,3.830125034E-1,-3.054326214E-2,4.183735693E-1
2.657376168E0,-1.692096740E-1,3.793473244E-1,-2.138028294E-2,4.159247802E-1
2.659375778E0,-1.753183305E-1,3.793473244E-1,-1.221730467E-2,4.180791457E-1
2.661376715E0,-1.765400618E-1,3.897320330E-1,-3.054326167E-3,4.278630387E-1
2.663377575E0,-1.771509200E-1,3.927863538E-1,4.276056774E-3,4.309081722E-1
2.665378434E0,-1.795943826E-1,4.025602043E-1,1.588249579E-2,4.410908229E-1
2.667380114E0,-1.844813079E-1,4.141666293E-1,2.260201424E-2,4.539583691E-1
2.669382418E0,-1.869247705E-1,4.300491214E-1,2.871066704E-2,4.697950819E-1
2.671384450E0,-1.936442852E-1,4.428772926E-1,3.115412779E-2,4.843645169E-1
2.673386676E0,-1.973094791E-1,4.575380683E-1,3.604105115E-2,4.995708877E-1
2.675388434E0,-2.015855312E-1,4.703662395E-1,3.970624134E-2,5.132813179E-1
2.677390895E0,-2.028072625E-1,4.868595898E-1,4.642575979E-2,5.294510337E-1
2.679392418E0,-2.034181207E-1,5.094616413E-1,4.581489414E-2,5.504807902E-1
2.681393825E0,-2.046398520E-1,5.326744914E-1,4.642575979E-2,5.725163177E-1
2.683395153E0,-2.009746730E-1,5.632177591E-1,4.642575979E-2,5.998003122E-1
2.685396520E0,-1.942551434E-1,5.913175344E-1,4.948008433E-2,6.243714968E-1
2.687397926E0,-1.942551434E-1,6.072000265E-1,5.192354694E-2,6.396272255E-1
2.689400036E0,-1.863138974E-1,6.420193911E-1,4.764748737E-2,6.702029916E-1
2.691401676E0,-1.857030392E-1,6.743952036E-1,4.031710699E-2,7.006568193E-1
2.693403629E0,-1.838704348E-1,7.055493593E-1,3.543018550E-2,7.299750224E-1
2.695404840E0,-1.789835095E-1,7.312057018E-1,3.115412779E-2,7.534370941E-1
2.697406832E0,-1.802052408E-1,7.599163651E-1,2.748893574E-2,7.814745373E-1
2.699408395E0,-1.783726513E-1,7.806857824E-1,2.321287990E-2,8.011403943E-1
2.701410621E0,-1.771509200E-1,7.959573865E-1,2.015855350E-2,8.156819091E-1
2.703412731E0,-1.783726513E-1,8.142833710E-1,1.466076635E-2,8.337200664E-1
2.705414450E0,-1.765400618E-1,8.258898258E-1,7.330383174E-3,8.445792635E-1
2.707415114E0,-1.777617931E-1,8.338310719E-1,1.832595794E-3,8.525707419E-1
2.709415973E0,-1.777617931E-1,8.381071091E-1,-4.276056774E-3,8.567619658E-1
2.711417614E0,-1.808161139E-1,8.399397135E-1,-6.108652335E-3,8.592034130E-1
2.713419489E0,-1.795943826E-1,8.399397135E-1,-1.099557430E-2,8.589957900E-1
2.715421246E0,-1.789835095E-1,8.338310719E-1,-1.588249579E-2,8.529722192E-1
2.717422887E0,-1.808161139E-1,8.252789378E-1,-1.893682219E-2,8.450670953E-1
2.719424059E0,-1.753183305E-1,8.142833710E-1,-2.565634064E-2,8.333379705E-1
2.721424411E0,-1.753183305E-1,7.977899909E-1,-2.687807009E-2,8.172685099E-1
2.723425153E0,-1.716531366E-1,7.800748944E-1,-3.054326214E-2,7.993212940E-1
2.725426911E0,-1.679879427E-1,7.599163651E-1,-3.115412779E-2,7.788860062E-1
2.727428473E0,-1.606575549E-1,7.330383062E-1,-3.237585723E-2,7.511352771E-1
2.729429176E0,-1.545489132E-1,7.055493593E-1,-2.871066704E-2,7.228482326E-1
2.731430582E0,-1.478293836E-1,6.774495840E-1,-2.626720630E-2,6.938886306E-1
2.733431051E0,-1.411098689E-1,6.475171447E-1,-2.199114859E-2,6.630792248E-1
2.735431676E0,-1.350012124E-1,6.181956530E-1,-1.710422710E-2,6.329958509E-1
2.737432614E0,-1.282816976E-1,6.059783101E-1,-1.649336144E-2,6.196272567E-1
2.739433746E0,-1.203404516E-1,5.760459304E-1,-1.588249579E-2,5.886960097E-1
2.741433942E0,-1.154535338E-1,5.479460955E-1,-1.160643995E-2,5.600974482E-1
2.743434371E0,-1.081231460E-1,5.167919993E-1,-8.552113548E-3,5.280508725E-1
2.745434918E0,-1.014036313E-1,4.880813360E-1,-1.832595794E-3,4.985072170E-1
2.747435661E0,-9.285151958E-2,4.624249935E-1,7.330383174E-3,4.717117911E-1
2.749436364E0,-8.491026610E-2,4.306600094E-1,1.282817032E-2,4.391382003E-1
2.751437067E0,-7.941248268E-2,4.056145251E-1,2.015855350E-2,4.138065401E-1
2.753438161E0,-7.452555746E-2,3.744603992E-1,2.382374369E-2,3.825470167E-1
2.755438981E0,-6.658431143E-2,3.408628106E-1,2.871066704E-2,3.484899261E-1
2.757439059E0,-6.047565863E-2,3.145956099E-1,3.665191308E-2,3.224454462E-1
2.759439645E0,-5.925392732E-2,2.974913716E-1,3.970624134E-2,3.059227512E-1
2.761440270E0,-4.948008433E-2,2.657263875E-1,4.459316283E-2,2.739476993E-1
2.763440426E0,-4.459316283E-2,2.345722616E-1,5.070181563E-2,2.440970507E-1
2.765441286E0,-3.726277873E-2,2.034181207E-1,5.558873713E-2,2.141437700E-1
2.767442145E0,-2.993239649E-2,1.747074574E-1,6.169738993E-2,1.876838085E-1
2.769442692E0,-2.626720630E-2,1.441642046E-1,7.024950534E-2,1.625062368E-1
2.771443395E0,-1.710422710E-2,1.191187203E-1,7.635815442E-2,1.425215487E-1
2.773443981E0,-1.282817032E-2,9.285151958E-2,7.819075137E-2,1.220645741E-1
2.775445309E0,-4.886921961E-3,7.391469181E-2,8.002334833E-2,1.090458617E-1
2.777446286E0,-3.054326167E-3,5.070181563E-2,8.063421398E-2,9.529889549E-2
2.779446481E0,2.443460980E-3,3.298672289E-2,8.368854225E-2,8.998814640E-2
2.781446676E0,7.941247895E-3,1.404990070E-2,8.735372871E-2,8.883207218E-2
2.783447418E0,1.160643995E-2,7.330383174E-3,9.101892263E-2,9.204829299E-2
2.785447575E0,1.466076635E-2,-1.282817032E-2,8.979719132E-2,9.188599237E-2
2.787448551E0,2.260201424E-2,-2.626720630E-2,8.552113175E-2,9.227502994E-2
2.789448942E0,2.809980139E-2,-3.848451003E-2,8.674286306E-2,9.896959454E-2
2.791449957E0,3.298672289E-2,-5.436700583E-2,8.735372871E-2,1.080489201E-1
2.793451129E0,3.970624134E-2,-6.475171447E-2,8.918632567E-2,1.171476454E-1
2.795452184E0,4.337143153E-2,-7.147123665E-2,8.674286306E-2,1.204721670E-1
2.797452184E0,5.192354694E-2,-7.880161703E-2,8.429940045E-2,1.265390789E-1
2.799453395E0,5.436700583E-2,-8.246681094E-2,8.185594529E-2,1.282846133E-1
2.801453864E0,5.803219974E-2,-9.162978828E-2,7.635815442E-2,1.326435903E-1
2.803454215E0,6.108652428E-2,-9.162978828E-2,7.208210230E-2,1.316184296E-1
2.805454684E0,6.230825558E-2,-9.346238524E-2,6.597344577E-2,1.302690743E-1
2.807456442E0,6.597344577E-2,-9.407325089E-2,6.169738993E-2,1.304179436E-1
2.809457379E0,6.719517708E-2,-9.651670605E-2,5.558873713E-2,1.300798757E-1
2.811458981E0,6.963863969E-2,-9.712757170E-2,5.375614017E-2,1.310459001E-1
2.813459996E0,6.841690838E-2,-1.001819000E-1,4.703662544E-2,1.301142981E-1
2.815462067E0,7.086037099E-2,-1.056796908E-1,4.214970022E-2,1.340372577E-1
2.817464098E0,7.086037099E-2,-1.123992056E-1,3.604105115E-2,1.376725498E-1
2.819465543E0,7.574728876E-2,-1.203404516E-1,3.054326214E-2,1.454385331E-1
2.821466598E0,7.574728876E-2,-1.325577646E-1,2.626720630E-2,1.549166836E-1
2.823468473E0,7.819075137E-2,-1.466076523E-1,2.199114859E-2,1.676043195E-1
2.825469918E0,8.063421398E-2,-1.618792862E-1,1.710422710E-2,1.816571891E-1
2.827470231E0,8.429940045E-2,-1.777617931E-1,1.404990070E-2,1.972385452E-1
2.829471520E0,8.246681094E-2,-1.918116808E-1,1.343903504E-2,2.092202272E-1
2.831472887E0,8.491026610E-2,-2.009746730E-1,1.282817032E-2,2.185523609E-1
2.833475036E0,8.735372871E-2,-2.113593817E-1,8.552113548E-3,2.288593472E-1
2.835477653E0,9.407325089E-2,-2.217440903E-1,5.497787148E-3,2.409365970E-1
2.837478746E0,9.468411654E-2,-2.309070677E-1,6.108652451E-4,2.495666824E-1
2.839480075E0,1.020144969E-1,-2.370157093E-1,1.221730490E-3,2.580404942E-1
2.841480973E0,1.032362282E-1,-2.400700450E-1,-2.443460980E-3,2.613375515E-1
2.843482692E0,1.099557430E-1,-2.412917763E-1,-3.665191587E-3,2.651894047E-1
2.845483786E0,1.130100712E-1,-2.425135076E-1,-1.221730490E-3,2.675547985E-1
2.847485895E0,1.166752651E-1,-2.425135076E-1,-6.108652451E-4,2.691213333E-1
2.849487379E0,1.191187203E-1,-2.388483137E-1,6.108652451E-4,2.669047763E-1
2.851488004E0,1.191187203E-1,-2.321287990E-1,1.221730490E-3,2.609109838E-1
2.853489137E0,1.233947799E-1,-2.290744632E-1,1.832595794E-3,2.602013448E-1
2.855489840E0,1.227839142E-1,-2.235766798E-1,1.221730490E-3,2.550762905E-1
2.857490856E0,1.215621829E-1,-2.217440903E-1,-6.108652451E-4,2.528797719E-1
2.859491246E0,1.197295859E-1,-2.180788964E-1,1.832595794E-3,2.487909508E-1
2.861492028E0,1.215621829E-1,-2.180788964E-1,5.497787148E-3,2.497318463E-1
2.863493082E0,1.191187203E-1,-2.180788964E-1,6.108652335E-3,2.485658670E-1
2.865494684E0,1.142318025E-1,-2.254092693E-1,6.108652335E-3,2.527757090E-1
2.867495387E0,1.111774743E-1,-2.290744632E-1,9.773843922E-3,2.548157541E-1
2.869496481E0,1.111774743E-1,-2.376265824E-1,1.343903504E-2,2.626926552E-1
2.871497106E0,1.062905490E-1,-2.394591719E-1,1.771509275E-2,2.625875098E-1
2.873497418E0,1.026253626E-1,-2.467895597E-1,2.138028294E-2,2.681308791E-1
2.875497301E0,9.712757170E-2,-2.498438805E-1,2.443460934E-2,2.691705407E-1
2.877497731E0,9.529497474E-2,-2.492330223E-1,2.504547499E-2,2.680028124E-1
2.879497809E0,8.796459436E-2,-2.504547536E-1,2.687807009E-2,2.668103899E-1
2.881498356E0,7.819075137E-2,-2.498438805E-1,2.626720630E-2,2.631078189E-1
2.883499528E0,6.780604273E-2,-2.492330223E-1,2.565634064E-2,2.595631073E-1
2.885499801E0,5.986479297E-2,-2.449569702E-1,2.565634064E-2,2.534678648E-1
2.887499567E0,4.948008433E-2,-2.437352389E-1,2.993239649E-2,2.505016842E-1
2.889499371E0,4.459316283E-2,-2.419026345E-1,3.359758854E-2,2.482624271E-1
2.891500504E0,3.420845419E-2,-2.419026345E-1,3.543018550E-2,2.468651473E-1
2.893502575E0,2.443460934E-2,-2.437352389E-1,3.848451003E-2,2.479616388E-1
2.895504293E0,1.404990070E-2,-2.516764700E-1,4.337143153E-2,2.557724112E-1
2.897504957E0,5.497787148E-3,-2.553416789E-1,4.581489414E-2,2.594775581E-1
2.899506442E0,-3.054326167E-3,-2.632829249E-1,4.703662544E-2,2.674690105E-1
2.901506832E0,-8.552113548E-3,-2.700024247E-1,4.642575979E-2,2.740981561E-1
2.903508161E0,-1.832595654E-2,-2.822197378E-1,4.398229718E-2,2.862136676E-1
2.905509489E0,-2.626720630E-2,-2.956587672E-1,4.398229718E-2,3.000641852E-1
2.907511168E0,-3.726277873E-2,-3.109304011E-1,4.642575979E-2,3.165779212E-1
2.909512575E0,-4.520402849E-2,-3.268128932E-1,4.948008433E-2,3.336140735E-1
2.911513981E0,-5.619960278E-2,-3.463605940E-1,5.131268129E-2,3.546224016E-1
2.913514918E0,-6.719517708E-2,-3.622430861E-1,4.764748737E-2,3.714909532E-1
2.915515387E0,-7.452555746E-2,-3.830125034E-1,4.459316283E-2,3.927355174E-1
2.917516325E0,-8.735372871E-2,-4.086688459E-1,4.459316283E-2,4.202730656E-1
2.919516832E0,-1.026253626E-1,-4.300491214E-1,4.459316283E-2,4.443678229E-1
2.921517145E0,-1.123992056E-1,-4.538728893E-1,4.398229718E-2,4.696473395E-1
2.923517536E0,-1.246165112E-1,-4.764748812E-1,4.153883830E-2,4.942499998E-1
2.925519411E0,-1.282816976E-1,-4.862487316E-1,4.214970022E-2,5.046490069E-1
2.927521090E0,-1.429424733E-1,-5.186246037E-1,4.092797264E-2,5.395174967E-1
2.929521403E0,-1.539380401E-1,-5.442809463E-1,3.726277873E-2,5.668572866E-1
2.931522184E0,-1.637118906E-1,-5.681046844E-1,3.604105115E-2,5.923204140E-1
2.933523512E0,-1.747074574E-1,-5.974262357E-1,3.726277873E-2,6.235617992E-1
2.935525426E0,-1.838704348E-1,-6.206390858E-1,3.665191308E-2,6.483398602E-1
2.937525778E0,-1.966986060E-1,-6.432411075E-1,3.481931984E-2,6.735442443E-1
2.939525973E0,-2.058615834E-1,-6.640105247E-1,3.787364438E-2,6.962207850E-1
2.941525817E0,-2.113593817E-1,-6.798930168E-1,3.726277873E-2,7.129627039E-1
2.943525934E0,-2.211332172E-1,-6.969972253E-1,3.665191308E-2,7.321532589E-1
2.945526442E0,-2.284636050E-1,-7.061602473E-1,3.543018550E-2,7.430432099E-1
2.947526090E0,-2.357939780E-1,-7.189884186E-1,3.481931984E-2,7.574665215E-1
2.949525973E0,-2.400700450E-1,-7.232644558E-1,3.359758854E-2,7.628065924E-1
2.951525895E0,-2.461786866E-1,-7.305948138E-1,2.932153270E-2,7.715131107E-1
2.953526950E0,-2.547308207E-1,-7.336491346E-1,2.809980139E-2,7.771218969E-1
2.955526950E0,-2.638937831E-1,-7.324274182E-1,2.382374369E-2,7.788821621E-1
2.957527184E0,-2.693915665E-1,-7.330383062E-1,2.199114859E-2,7.812813739E-1
2.959527614E0,-2.767219543E-1,-7.318165898E-1,1.954768784E-2,7.826318887E-1
2.961528356E0,-2.840523422E-1,-7.269296646E-1,1.343903504E-2,7.805722760E-1
2.963528473E0,-2.944370508E-1,-7.232644558E-1,5.497787148E-3,7.809192504E-1
2.965527926E0,-2.974913716E-1,-7.171558142E-1,-6.108652451E-4,7.764109422E-1
2.967528903E0,-3.072652221E-1,-7.098253965E-1,-7.941247895E-3,7.735160462E-1
2.969529293E0,-3.115412891E-1,-7.012733221E-1,-1.527163107E-2,7.675125210E-1
2.971530661E0,-3.152064681E-1,-6.963863969E-1,-2.015855350E-2,7.646669200E-1
2.973531598E0,-3.200933933E-1,-6.933320761E-1,-1.893682219E-2,7.638898817E-1
2.975532262E0,-3.231477141E-1,-6.841690540E-1,-2.443460934E-2,7.570394902E-1
2.977533629E0,-3.262020350E-1,-6.774495840E-1,-2.932153270E-2,7.524662509E-1
2.979534996E0,-3.316998184E-1,-6.664539576E-1,-3.481931984E-2,7.452503151E-1
2.981535661E0,-3.390302062E-1,-6.627888083E-1,-4.153883830E-2,7.456245438E-1
2.983536598E0,-3.408628106E-1,-6.572909951E-1,-4.520402849E-2,7.417966784E-1
2.985537614E0,-3.439171314E-1,-6.481280327E-1,-4.703662544E-2,7.352287972E-1
2.987538239E0,-3.439171314E-1,-6.432411075E-1,-5.192354694E-2,7.312552019E-1
2.989538629E0,-3.420845270E-1,-6.346889734E-1,-5.436700583E-2,7.230544156E-1
2.991539059E0,-3.433062732E-1,-6.279694438E-1,-5.803219974E-2,7.180338124E-1
2.993539450E0,-3.433062732E-1,-6.200281978E-1,-5.742133409E-2,7.110494869E-1
2.995540387E0,-3.408628106E-1,-6.188064814E-1,-5.864306539E-2,7.089061476E-1
2.997541325E0,-3.414736688E-1,-6.151412725E-1,-5.925392732E-2,7.060552950E-1
2.999542340E0,-3.384193480E-1,-6.090326309E-1,-5.864306539E-2,6.992048410E-1
3.001543434E0,-3.384193480E-1,-6.102544069E-1,-5.619960278E-2,7.000689192E-1
3.003544567E0,-3.396410644E-1,-6.084218025E-1,-5.436700583E-2,6.989198192E-1
3.005545387E0,-3.396410644E-1,-6.090326309E-1,-5.436700583E-2,6.994516205E-1
3.007546911E0,-3.408628106E-1,-6.072000265E-1,-5.558873713E-2,6.985480911E-1
3.009549528E0,-3.402519524E-1,-6.145304441E-1,-5.253441259E-2,7.043996894E-1
3.011549918E0,-3.390302062E-1,-6.175847650E-1,-4.948008433E-2,7.062582399E-1
3.013550465E0,-3.439171314E-1,-6.243042946E-1,-4.703662544E-2,7.143159593E-1
3.015551168E0,-3.463605940E-1,-6.322455406E-1,-4.459316283E-2,7.222801637E-1
3.017551364E0,-3.475823104E-1,-6.377432942E-1,-4.520402849E-2,7.277179234E-1
3.019550817E0,-3.506366611E-1,-6.481280327E-1,-4.337143153E-2,7.381714543E-1
3.021551168E0,-3.481931984E-1,-6.530149579E-1,-4.276056588E-2,7.412796400E-1
3.023550934E0,-3.481931984E-1,-6.621779203E-1,-3.787364438E-2,7.491011377E-1
3.025550934E0,-3.512475193E-1,-6.737843752E-1,-3.909537569E-2,7.608473253E-1
3.027552028E0,-3.469714522E-1,-6.890559793E-1,-3.909537569E-2,7.724738051E-1
3.029551364E0,-3.475823104E-1,-7.061602473E-1,-3.909537569E-2,7.880382007E-1
3.031551832E0,-3.451388776E-1,-7.232644558E-1,-3.787364438E-2,8.022884337E-1
3.033551325E0,-3.426954150E-1,-7.385360599E-1,-3.298672289E-2,8.148397285E-1
3.035551442E0,-3.359758854E-1,-7.593054771E-1,-2.687807009E-2,8.307508855E-1
3.037550973E0,-3.329215646E-1,-7.764097452E-1,-2.565634064E-2,8.451669116E-1
3.039551598E0,-3.310889602E-1,-7.965682745E-1,-2.626720630E-2,8.630358519E-1
3.041551325E0,-3.237585723E-1,-8.155050874E-1,-2.504547499E-2,8.777786945E-1
3.043550856E0,-3.249803185E-1,-8.258898258E-1,-2.504547499E-2,8.878814604E-1
3.045550700E0,-3.194825351E-1,-8.429940343E-1,-2.321287990E-2,9.018020126E-1
3.047551832E0,-3.152064681E-1,-8.588765264E-1,-1.954768784E-2,9.150989658E-1
3.049552223E0,-3.066543639E-1,-8.735373020E-1,-1.710422710E-2,9.259572730E-1
3.051553317E0,-3.029891551E-1,-8.906415105E-1,-2.138028294E-2,9.410110758E-1
3.053554371E0,-2.956587672E-1,-9.010262489E-1,-2.260201424E-2,9.485637875E-1
3.055556325E0,-2.864958048E-1,-9.083566070E-1,-1.832595654E-2,9.526423318E-1
3.057556754E0,-2.767219543E-1,-9.132435322E-1,-7.941247895E-3,9.542808038E-1
3.059557184E0,-2.681698501E-1,-9.138544202E-1,-6.108652451E-4,9.523892812E-1
3.061558356E0,-2.590068579E-1,-9.132435322E-1,5.497787148E-3,9.492778978E-1
3.063559567E0,-2.510656118E-1,-9.108000994E-1,1.221730467E-2,9.448492075E-1
3.065559098E0,-2.449569702E-1,-9.059131742E-1,1.893682219E-2,9.386379492E-1
3.067558668E0,-2.388483137E-1,-9.028588533E-1,2.443460934E-2,9.342374838E-1
3.069558473E0,-2.315179259E-1,-8.930850029E-1,3.176499158E-2,9.231524181E-1
3.071558668E0,-2.260201424E-1,-8.869763613E-1,3.848451003E-2,9.161294820E-1
3.073558864E0,-2.193006277E-1,-8.772025108E-1,4.520402849E-2,9.053288985E-1
3.075558746E0,-2.125810981E-1,-8.637634516E-1,5.192354694E-2,8.910522309E-1
3.077558043E0,-2.076941878E-1,-8.521569967E-1,5.803219974E-2,8.790199992E-1
3.079557379E0,-2.028072625E-1,-8.460483551E-1,6.475171447E-2,8.724227126E-1
3.081556442E0,-1.948660165E-1,-8.332201838E-1,6.963863969E-2,8.585325732E-1
3.083555153E0,-1.887573600E-1,-8.240572214E-1,7.513642311E-2,8.487314812E-1
3.085554450E0,-1.814269722E-1,-8.173376918E-1,8.002334833E-2,8.410471954E-1
3.087554371E0,-1.710422635E-1,-8.106181622E-1,8.491026610E-2,8.328067087E-1
3.089554371E0,-1.612684280E-1,-8.051204085E-1,9.101892263E-2,8.261421321E-1
3.091554879E0,-1.569923609E-1,-8.045095205E-1,9.224065393E-2,8.248578716E-1
3.093555231E0,-1.459967941E-1,-7.965682745E-1,9.712757170E-2,8.156407573E-1
3.095556090E0,-1.368338168E-1,-8.002334833E-1,1.007927656E-1,8.180808657E-1
3.097556286E0,-1.264491081E-1,-7.971791625E-1,1.014036313E-1,8.134904366E-1
3.099556598E0,-1.166752651E-1,-8.002334833E-1,1.001819000E-1,8.148761614E-1
3.101555973E0,-1.026253626E-1,-8.057312369E-1,1.007927656E-1,8.184705082E-1
3.103555192E0,-9.101892263E-2,-8.063421249E-1,1.038470939E-1,8.180808552E-1
3.105555348E0,-8.368854225E-2,-8.118399382E-1,1.056796908E-1,8.229556819E-1
3.107555075E0,-7.452555746E-2,-8.136724830E-1,1.032362282E-1,8.235743361E-1
3.109555114E0,-6.719517708E-2,-8.167268038E-1,1.014036313E-1,8.257363746E-1
3.111554684E0,-5.864306539E-2,-8.161159754E-1,9.957103431E-2,8.242564439E-1
3.113553239E0,-5.497787148E-2,-8.185594082E-1,9.590584040E-2,8.259903155E-1
3.115552301E0,-4.948008433E-2,-8.142833710E-1,9.224065393E-2,8.209835718E-1
3.117551559E0,-4.581489414E-2,-8.112290502E-1,9.101892263E-2,8.176038287E-1
3.119551950E0,-4.214970022E-2,-8.057312369E-1,8.124507964E-2,8.109131805E-1
3.121552496E0,-3.909537569E-2,-8.026769161E-1,7.269296050E-2,8.069095033E-1
3.123552731E0,-3.359758854E-2,-7.953465581E-1,6.719517708E-2,7.988868113E-1
3.125553434E0,-3.176499158E-2,-7.971791625E-1,6.108652428E-2,8.001469835E-1
3.127553278E0,-2.809980139E-2,-7.867944241E-1,5.619960278E-2,7.892993475E-1
3.129553746E0,-2.565634064E-2,-7.825183868E-1,4.886921868E-2,7.844625384E-1
3.131553746E0,-2.199114859E-2,-7.788531780E-1,4.092797264E-2,7.802377730E-1
3.133554332E0,-2.443460934E-2,-7.739662528E-1,3.115412779E-2,7.749783160E-1
3.135554176E0,-2.260201424E-2,-7.709119320E-1,2.748893574E-2,7.717329198E-1
3.137554723E0,-2.199114859E-2,-7.684684992E-1,2.443460934E-2,7.691713041E-1
3.139556168E0,-1.954768784E-2,-7.672467232E-1,2.076941915E-2,7.677766701E-1
3.141556911E0,-1.954768784E-2,-7.696902156E-1,1.038470957E-2,7.700084300E-1
3.143556871E0,-1.404990070E-2,-7.757988572E-1,-3.665191587E-3,7.759347268E-1
3.145557184E0,-1.221730467E-2,-7.812966704E-1,-1.588249579E-2,7.815535832E-1
3.147557184E0,-3.054326167E-3,-7.904596329E-1,-2.687807009E-2,7.909223671E-1
3.149556246E0,3.054326167E-3,-7.996225953E-1,-3.420845419E-2,8.003598204E-1
3.151556286E0,1.954768784E-2,-8.124507666E-1,-4.153883830E-2,8.137467882E-1
3.153556950E0,3.176499158E-2,-8.228355050E-1,-4.948008433E-2,8.249336711E-1
3.155557262E0,4.581489414E-2,-8.387179971E-1,-5.803219974E-2,8.419706761E-1
3.157558043E0,6.169738993E-2,-8.582656980E-1,-6.414084882E-2,8.628676751E-1
3.159558512E0,7.757988572E-2,-8.735373020E-1,-6.352998316E-2,8.792736294E-1
3.161557340E0,8.368854225E-2,-8.820894361E-1,-6.536258012E-2,8.884581094E-1
3.163557848E0,9.773843735E-2,-9.071348906E-1,-6.291911751E-2,9.145519817E-1
3.165557653E0,1.050688252E-1,-9.315695167E-1,-6.414084882E-2,9.396676385E-1
3.167557848E0,1.111774743E-1,-9.566149712E-1,-6.536258012E-2,9.652693410E-1
3.169556950E0,1.154535338E-1,-9.810495973E-1,-6.475171447E-2,9.899397029E-1
3.171557223E0,1.227839142E-1,-1.005484223E0,-6.597344577E-2,1.015099457E0
3.173557848E0,1.227839142E-1,-1.026253581E0,-6.414084882E-2,1.035560887E0
3.175557848E0,1.203404516E-1,-1.047633886E0,-6.230825558E-2,1.056362108E0
3.177557496E0,1.203404516E-1,-1.066570759E0,-5.986479297E-2,1.075006419E0
3.179558590E0,1.136209369E-1,-1.081231475E0,-5.558873713E-2,1.088605221E0
3.181560192E0,1.105666086E-1,-1.094670534E0,-5.131268129E-2,1.101436128E0
3.183560934E0,1.032362282E-1,-1.105666041E0,-4.948008433E-2,1.111576985E0
