"Time (s)","Linear Acceleration x (m/s^2)","Linear Acceleration y (m/s^2)","Linear Acceleration z (m/s^2)","Absolute acceleration (m/s^2)"
2.800352700E-2,-1.797407866E-3,-9.071636200E-2,-2.882528305E-2,9.520286735E-2
3.600614400E-2,-2.651640773E-2,-2.867126465E-2,-1.185793877E-1,1.248448336E-1
4.401110500E-2,8.880054951E-2,2.472209930E-2,-3.701672554E-1,3.814715150E-1
5.201356600E-2,1.660989225E-1,1.049232483E-2,-4.589989185E-1,4.882406662E-1
6.001696400E-2,5.845585465E-2,-5.198287964E-2,-3.709049225E-1,3.790643326E-1
6.801883900E-2,-6.190378964E-2,-3.258895874E-2,-2.908446789E-1,2.991400118E-1
7.602176900E-2,-2.071453631E-1,2.166910172E-1,-2.096307278E-1,3.657994538E-1
8.402508900E-2,-1.913542002E-1,3.881473541E-1,-1.387176514E-1,4.544418393E-1
9.203024500E-2,-5.350407213E-2,3.390102386E-1,-5.784368515E-2,3.480467204E-1
1.000325110E-1,6.206205487E-2,1.390180588E-1,-5.611324310E-2,1.622541690E-1
1.080367690E-1,1.042920053E-1,1.131725311E-2,-1.569964886E-1,1.888194905E-1
1.160377060E-1,8.373554051E-2,-2.646732330E-2,-1.772308350E-1,1.977951688E-1
1.240413780E-1,5.159077048E-2,9.294509888E-3,-3.737092018E-2,6.437842176E-2
1.320413390E-1,4.385332763E-2,2.861976624E-2,5.541300774E-2,7.624176539E-2
1.400393470E-1,-2.097074687E-2,5.990982056E-2,4.285788536E-2,7.658823122E-2
1.480396600E-1,-8.382482082E-2,4.070854187E-2,-7.210016251E-3,9.346534278E-2
1.560409100E-1,-7.922668010E-2,3.509807587E-2,-1.532459259E-2,8.799764149E-2
1.640401670E-1,-1.010213196E-1,-2.136230469E-3,-3.056001663E-2,1.055641280E-1
1.720393860E-1,-6.404176354E-3,-4.089069366E-2,-9.438538551E-2,1.030614540E-1
1.800434100E-1,3.433729708E-2,-2.193450928E-2,-7.012486458E-2,8.110283164E-2
1.880461830E-1,3.264495730E-2,4.045772552E-2,-1.547670364E-2,5.424065954E-2
1.960505970E-1,1.414689422E-2,7.653999329E-2,-1.838135719E-2,7.997736855E-2
2.040559880E-1,2.455225587E-2,5.474281311E-2,-5.666756630E-2,8.252758282E-2
2.120578240E-1,3.598418832E-2,2.831363678E-2,-6.372785568E-2,7.847141790E-2
2.200587610E-1,3.046776354E-2,4.994869232E-2,-5.681729317E-2,8.155587828E-2
2.280594640E-1,7.257714868E-3,7.513141632E-2,-1.683974266E-2,7.733680286E-2
2.360594250E-1,-1.689648628E-2,9.223747253E-2,7.763576508E-2,1.217397002E-1
2.440586440E-1,-4.166530073E-2,8.481025696E-2,1.173887253E-1,1.506946907E-1
2.520596990E-1,-8.645221591E-3,5.199241638E-2,9.133744240E-2,1.054536846E-1
2.600570810E-1,6.212882698E-2,3.569602966E-3,5.389213562E-2,8.232311637E-2
2.680578240E-1,1.158913970E-1,-7.024765015E-3,8.438491821E-2,1.435304067E-1
2.760575890E-1,1.196000427E-1,2.103328705E-2,1.042075157E-1,1.600180481E-1
2.840561050E-1,7.637391984E-2,5.888175964E-2,6.921792030E-2,1.187061824E-1
2.920544250E-1,3.533172607E-2,6.589126587E-2,3.157949448E-2,8.116190151E-2
3.000537220E-1,-3.669188917E-2,7.765007019E-2,1.322746277E-2,8.689530426E-2
3.080543080E-1,-1.519858837E-2,8.457946777E-2,-5.767345428E-2,1.034935302E-1
3.160534880E-1,1.854307950E-2,8.530902863E-2,-3.557229042E-2,9.427016499E-2
3.240520810E-1,5.884058774E-2,1.089944839E-1,4.920458794E-2,1.332782944E-1
3.320527450E-1,-2.253273129E-2,1.591014862E-1,2.078549862E-1,2.627255263E-1
3.400513000E-1,-1.327581704E-2,1.733112335E-1,3.281676769E-1,3.713583918E-1
3.480518470E-1,6.888882816E-2,2.306833267E-1,3.980746269E-1,4.652137965E-1
3.560557920E-1,1.549932957E-1,3.976287842E-1,1.732518673E-1,4.605950295E-1
3.640567690E-1,1.128187031E-1,3.941869736E-1,-1.792464256E-1,4.474826376E-1
3.720589560E-1,-5.446882546E-2,2.663774490E-1,-3.214688301E-1,4.210296985E-1
3.800625500E-1,-1.650469303E-1,1.654376984E-1,-2.548980713E-1,3.458079640E-1
3.880623550E-1,1.016635597E-1,6.705389023E-1,-3.164932728E-1,7.484155868E-1
3.960631750E-1,-2.999801636E-1,6.941061020E-1,-4.734082222E-1,8.921248367E-1
4.040628630E-1,-5.742031932E-1,4.855813980E-1,-4.185135365E-1,8.606115159E-1
4.120679020E-1,-6.602545977E-1,1.843051910E-1,-2.848279476E-1,7.423149580E-1
4.200714560E-1,-3.829730451E-1,-1.043310165E-1,-1.678440571E-1,4.309581671E-1
4.280722770E-1,-5.935074389E-2,-4.566593170E-1,-1.329183578E-2,4.606917793E-1
4.360725110E-1,4.321903586E-1,-7.362604141E-1,1.457221508E-1,8.660847815E-1
4.440731750E-1,7.090807557E-1,-8.745441437E-1,2.881047726E-1,1.162164936E0
4.520733700E-1,5.778567791E-1,-7.429561615E-1,3.349132538E-1,9.990341349E-1
4.600732530E-1,2.312232703E-1,-4.829235077E-1,2.411632538E-1,5.872299635E-1
4.680737220E-1,-8.103957772E-2,-1.590480804E-1,6.885647774E-2,1.913241218E-1
4.760725110E-1,-2.135206014E-1,8.749675751E-2,-5.776524544E-2,2.378729774E-1
4.840732530E-1,-1.860432476E-1,2.163705826E-1,-1.351675987E-1,3.157508491E-1
4.920732920E-1,-7.052826881E-2,2.567176819E-1,-1.959793568E-1,3.305845023E-1
5.000750890E-1,3.093071282E-2,2.446165085E-1,-2.193374634E-1,3.300043455E-1
5.080766520E-1,3.958527744E-2,1.826314926E-1,-1.651494503E-1,2.493904513E-1
5.160747380E-1,-1.671731472E-2,1.209573746E-1,-1.192669868E-1,1.706891011E-1
5.240728240E-1,-7.998436689E-2,5.723857880E-2,-7.226395607E-2,1.220484871E-1
5.320682140E-1,-1.027238816E-1,-1.623153687E-3,-3.507256508E-2,1.085583498E-1
5.400677450E-1,-1.113891229E-1,-2.469348907E-2,-4.050302505E-2,1.210694022E-1
5.480672770E-1,-1.298988760E-1,-3.614425659E-2,-3.984308243E-2,1.405972847E-1
5.560673160E-1,-1.595036089E-1,-4.068374634E-2,-8.616232872E-2,1.857969735E-1
5.640691910E-1,-1.979889721E-1,-1.911354065E-2,-1.436965466E-1,2.453847143E-1
5.720689950E-1,-2.331048548E-1,4.785537720E-2,-1.818118095E-1,2.994721098E-1
5.800681750E-1,-2.247333378E-1,9.809970856E-2,-1.722142696E-1,2.996437561E-1
5.880680970E-1,-1.734475195E-1,1.124725342E-1,-1.747164726E-1,2.706657695E-1
5.960687220E-1,-1.246336550E-1,1.029987335E-1,-1.320736408E-1,2.087719657E-1
6.040684100E-1,-7.623378932E-2,9.106731415E-2,-1.322600842E-1,1.777570707E-1
6.120664170E-1,-7.159809768E-2,7.913017273E-2,-1.156053543E-1,1.573291765E-1
6.200661050E-1,-9.323197603E-2,8.394718170E-2,-1.109118462E-1,1.674537796E-1
6.280630970E-1,-1.104027405E-1,7.849311829E-2,-9.909105301E-2,1.678361449E-1
6.360646200E-1,-1.491591781E-1,5.865955353E-2,-8.720922470E-2,1.824687713E-1
6.440698940E-1,-1.551620662E-1,2.691555023E-2,-7.308530807E-2,1.736121421E-1
6.520717690E-1,-1.778008938E-1,4.732131958E-3,-7.806611061E-2,1.942417785E-1
6.600743470E-1,-2.121960521E-1,-5.585384369E-2,-9.228634834E-2,2.380411445E-1
6.680777450E-1,-1.772682518E-1,-8.053970337E-2,-1.256089211E-1,2.317073110E-1
6.760815740E-1,-1.116384268E-1,-7.880973816E-2,-1.639654636E-1,2.134450431E-1
6.840838780E-1,-1.060127020E-1,-5.315685272E-2,-1.926739216E-1,2.262467326E-1
6.920866520E-1,-1.475751102E-1,-3.472328186E-2,-1.925539970E-1,2.450737873E-1
7.000885270E-1,-1.507940888E-1,5.371093750E-3,-1.258161068E-1,1.964622066E-1
7.080897380E-1,-1.374845207E-1,5.059528351E-2,-5.242824554E-3,1.465925078E-1
7.160921990E-1,-1.300026476E-1,1.033391953E-1,1.070048809E-1,1.975594144E-1
7.240908310E-1,-6.381678581E-2,9.603691101E-2,1.173233986E-2,1.159021925E-1
7.320895420E-1,-8.186727017E-2,5.974197388E-2,-5.859684944E-2,1.170681175E-1
7.400908700E-1,-1.616393030E-1,9.092330933E-3,-5.478525162E-2,1.709133071E-1
7.480914950E-1,-2.903780639E-1,-2.703094482E-2,-3.969573975E-2,2.943226864E-1
7.560881360E-1,-3.386142850E-1,-5.778980255E-2,9.767889977E-2,3.571280761E-1
7.640863780E-1,-3.105670214E-1,-4.704284668E-2,2.155573368E-1,3.809591443E-1
7.720868080E-1,-2.175752670E-1,-2.875900269E-2,2.698893547E-1,3.478596568E-1
7.800866910E-1,-1.000154987E-1,2.547359467E-2,1.947562695E-1,2.204132675E-1
7.880862220E-1,2.723565698E-2,5.090713501E-2,2.890419960E-2,6.456601397E-2
7.960855970E-1,1.971002072E-1,7.869243622E-2,-5.534577370E-2,2.193265736E-1
8.040863390E-1,2.761528492E-1,9.947776794E-2,-1.575112343E-2,2.939461181E-1
8.120842300E-1,3.145176172E-1,8.208274841E-2,5.213022232E-2,3.292058159E-1
8.200848940E-1,2.737566531E-1,5.995082855E-2,1.413934231E-1,3.138931459E-1
8.280859490E-1,2.084528506E-1,5.225086212E-2,1.969652176E-1,2.915099320E-1
8.360876670E-1,1.538514346E-1,1.115989685E-2,1.684002876E-1,2.283713294E-1
8.440913000E-1,6.725612283E-2,-5.854606628E-3,1.346430779E-1,1.506201211E-1
8.520947380E-1,-5.389362574E-3,-3.712081909E-2,1.652021408E-1,1.694070476E-1
8.600975890E-1,1.550787687E-2,-4.911708832E-2,1.738100052E-1,1.812812746E-1
8.681002850E-1,9.095665812E-2,-9.934234619E-2,1.271436214E-1,1.852228816E-1
8.761025890E-1,1.973692477E-1,-1.279964447E-1,1.355075836E-1,2.714774668E-1
8.841055970E-1,2.579730451E-1,-1.613502502E-1,1.196813583E-1,3.269673115E-1
8.921059880E-1,3.041249514E-1,-1.779050827E-1,1.181232929E-1,3.716117824E-1
9.001063000E-1,3.130407929E-1,-1.442155838E-1,1.599290371E-1,3.799604842E-1
9.081090740E-1,2.848709226E-1,-1.104307175E-1,1.943702698E-1,3.621135011E-1
9.161098550E-1,2.347675264E-1,-5.526733398E-2,9.299969673E-2,2.584941261E-1
9.241122380E-1,1.412439346E-1,-9.370803833E-3,-1.955747604E-3,1.415679554E-1
9.321130970E-1,6.334778666E-2,1.954841614E-2,-4.594349861E-2,8.065908327E-2
9.401164950E-1,5.842837691E-2,2.676296234E-2,-3.439640999E-2,7.289200506E-2
9.481185660E-1,9.204152226E-2,2.192974091E-2,2.053833008E-2,9.682137346E-2
9.561191520E-1,1.634445488E-1,1.942062378E-2,1.165039539E-1,2.016542895E-1
9.641188780E-1,2.433771193E-1,2.399444580E-2,1.554863453E-1,2.898002057E-1
9.721186050E-1,2.738531530E-1,7.120513916E-2,1.600782871E-1,3.251011831E-1
9.801226670E-1,2.622306645E-1,1.326971054E-1,1.483702660E-1,3.292220816E-1
9.881261830E-1,2.440169752E-1,1.892776489E-1,3.649997711E-2,3.109703537E-1
9.961297770E-1,2.092886567E-1,2.147340775E-1,-4.875850677E-2,3.037924585E-1
1.004135167E0,2.502871752E-1,1.924171448E-1,-7.436871529E-2,3.243435424E-1
1.012141027E0,3.174203038E-1,1.393613815E-1,-5.428314209E-3,3.467083941E-1
1.020144074E0,3.228006065E-1,6.282615662E-2,-9.870052338E-3,3.290057377E-1
1.028141456E0,3.196368814E-1,-1.128005981E-2,-9.350061417E-2,3.332226591E-1
1.036140831E0,2.841001451E-1,-1.094942093E-1,-1.096456051E-1,3.236109285E-1
1.044142277E0,2.727959454E-1,-1.792659760E-1,-4.581451416E-2,3.296253747E-1
1.052145714E0,3.030456901E-1,-1.581707001E-1,1.385450363E-2,3.421207505E-1
1.060151417E0,2.696906626E-1,-8.208274841E-2,3.571677208E-2,2.841589677E-1
1.068157277E0,1.906847656E-1,-1.788330078E-2,8.131909370E-2,2.080703902E-1
1.076159816E0,8.732196689E-2,2.235412598E-2,2.396488190E-1,2.560398197E-1
1.084162589E0,5.495265126E-2,1.464176178E-2,3.169815540E-1,3.220426690E-1
1.092165636E0,3.867247701E-2,-3.158950806E-2,3.065993786E-1,3.106390775E-1
1.100165831E0,4.035267234E-2,-1.045160294E-1,1.440436840E-1,1.824843047E-1
1.108167706E0,2.506464720E-2,-1.993045807E-1,-2.977395058E-2,2.030690537E-1
1.116168761E0,2.666810155E-2,-2.869977951E-1,-1.270861626E-1,3.150076424E-1
1.124171300E0,1.352441311E-2,-3.889636993E-1,-1.436369419E-1,4.148580965E-1
1.132172824E0,6.174790859E-2,-4.764280319E-1,-9.863591194E-2,4.904340088E-1
1.140175792E0,9.207713604E-2,-5.040273666E-1,-2.754616737E-2,5.131087376E-1
1.148176261E0,1.133260727E-1,-4.648723602E-1,1.233861446E-1,4.941388982E-1
1.156174191E0,1.387334466E-1,-3.399076462E-1,2.517545223E-1,4.451567327E-1
1.164174347E0,1.315858364E-1,-1.795015335E-1,2.191109657E-1,3.123223466E-1
1.172176222E0,1.023105979E-1,-1.233959198E-2,1.137669086E-1,1.535012491E-1
1.180176417E0,7.692658901E-2,9.954071045E-2,1.168727875E-2,1.263433640E-1
1.188177706E0,7.763707638E-2,1.204805374E-1,-1.048135757E-1,1.775639636E-1
1.196178917E0,1.023892760E-1,3.879547119E-2,-1.697123051E-1,2.019676185E-1
1.204180636E0,1.253439784E-1,-7.117843628E-2,-1.380078793E-1,1.995586567E-1
1.212184503E0,1.397805214E-1,-1.666221619E-1,-1.213927269E-1,2.490737504E-1
1.220187863E0,9.464246035E-2,-2.118225098E-1,-4.725480080E-2,2.367677916E-1
1.228188761E0,2.165788412E-2,-1.734151840E-1,1.422681808E-1,2.253488968E-1
1.236189816E0,-3.477978706E-2,-6.589889526E-2,2.251422405E-1,2.371525384E-1
1.244190011E0,-6.969648600E-2,9.366035461E-2,1.353237629E-1,1.787243212E-1
1.252190167E0,-6.667125225E-2,2.289648056E-1,-2.041459084E-2,2.393463883E-1
1.260190324E0,-1.810711622E-2,3.213052750E-1,-1.071550846E-1,3.391860250E-1
1.268189933E0,6.467211246E-2,4.307956696E-1,-5.644965172E-2,4.392652436E-1
1.276191261E0,9.951204062E-2,5.195531845E-1,5.861973763E-2,5.322353158E-1
1.284191144E0,1.045469642E-1,5.537090302E-1,5.935478210E-2,5.666098728E-1
1.292188449E0,6.763499975E-2,4.969530106E-1,-6.965065002E-2,5.063477076E-1
1.300188917E0,3.117531538E-2,3.972778320E-1,1.614713669E-2,3.988261603E-1
1.308188292E0,5.394560099E-2,2.694635391E-1,1.647760868E-1,3.204245396E-1
1.316186925E0,1.365870833E-1,8.688735962E-2,1.256628036E-1,2.049306830E-1
1.324187472E0,2.312369347E-1,-9.077167511E-2,1.190614700E-2,2.487001675E-1
1.332186456E0,3.184763789E-1,-1.965761185E-1,-2.046990395E-2,3.748178107E-1
1.340186183E0,3.073872328E-1,-2.855396271E-1,1.432642937E-1,4.433333366E-1
1.348185831E0,2.101407051E-1,-3.676443100E-1,1.643998623E-1,4.542562816E-1
1.356184230E0,9.071367979E-2,-3.545036316E-1,4.611635208E-2,3.688204366E-1
1.364185011E0,-3.359979391E-2,-2.770910263E-1,-4.219865799E-2,2.822925960E-1
1.372190167E0,-1.028271914E-1,-9.931182861E-2,-5.089926720E-2,1.517465189E-1
1.380194074E0,-1.239225268E-1,7.380962372E-2,-4.569482803E-2,1.513032403E-1
1.388197160E0,-1.211572886E-1,2.591915131E-1,-1.204295158E-1,3.104232551E-1
1.396201613E0,-9.327578545E-2,4.138069153E-1,-1.271245480E-1,4.428286192E-1
1.404203058E0,-5.422663689E-2,4.922361374E-1,-1.821565628E-2,4.955489413E-1
1.412205480E0,5.910396576E-4,4.656677246E-1,9.409403801E-2,4.750794324E-1
1.420205519E0,6.125307083E-2,3.603067398E-1,7.860445976E-2,3.738335813E-1
1.428212433E0,1.032161713E-1,1.833448410E-1,-1.905608177E-2,2.112629712E-1
1.436217160E0,1.141210794E-1,1.149845123E-2,-1.177394390E-1,1.643727795E-1
1.444221261E0,7.690399885E-2,-9.292507172E-2,-1.529107094E-1,1.947587714E-1
1.452225988E0,-4.385590553E-3,-1.370038986E-1,-8.403468132E-2,1.607828638E-1
1.460229074E0,-7.889908552E-2,-1.712875366E-1,-1.810050011E-2,1.894521417E-1
1.468231691E0,-1.183368862E-1,-1.361169815E-1,-2.143788338E-2,1.816343418E-1
1.476234035E0,-1.294309199E-1,-5.583763123E-2,-1.647126675E-1,2.167959107E-1
1.484233449E0,-8.501607180E-2,4.308032990E-2,-2.848787308E-1,3.003989656E-1
1.492233839E0,-4.208266735E-2,1.465463638E-1,-2.248771191E-1,2.716919328E-1
1.500233175E0,4.094004631E-3,2.475986481E-1,-9.790945053E-2,2.662857711E-1
1.508237433E0,3.454905748E-2,3.126401901E-1,-1.288201809E-1,3.399002278E-1
1.516241105E0,4.867345095E-2,3.199157715E-1,-2.378451824E-1,4.016037057E-1
1.524246183E0,5.322682858E-2,3.101911545E-1,-2.982263565E-1,4.335788363E-1
1.532252355E0,4.550534487E-2,2.526330948E-1,-2.844564915E-1,3.831575558E-1
1.540256261E0,2.550578117E-2,1.902742386E-1,-2.945125103E-1,3.515571781E-1
1.548261066E0,3.081613779E-2,1.327857971E-1,-2.710778713E-1,3.034220074E-1
1.556268410E0,5.473625660E-2,8.989334106E-2,-1.979448795E-1,2.241852936E-1
1.564271847E0,5.922639370E-2,7.120704651E-2,-1.470754147E-1,1.738084773E-1
1.572274777E0,9.889179468E-2,6.474018097E-2,-1.087622643E-1,1.606241209E-1
1.580276417E0,1.214288473E-1,6.821727753E-2,-6.186938286E-2,1.524020421E-1
1.588276027E0,1.220489144E-1,6.959629059E-2,-9.715223312E-2,1.708160929E-1
1.596274620E0,5.567193031E-2,2.793598175E-2,-2.043914795E-1,2.136718507E-1
1.604271183E0,-1.250445843E-3,-3.251266479E-2,-2.240505219E-1,2.264006920E-1
1.612271769E0,-5.535161495E-2,-1.163101196E-1,-1.521017551E-1,1.993158025E-1
1.620268605E0,-1.212313175E-1,-1.753063202E-1,-4.190731049E-2,2.172223767E-1
1.628264933E0,-1.411090195E-1,-2.145404816E-1,9.071826935E-3,2.569468265E-1
1.636267120E0,-7.406434417E-2,-2.320842743E-1,4.568099976E-3,2.436585828E-1
1.644266300E0,2.689749002E-2,-2.017803192E-1,-1.653480530E-2,2.042355796E-1
1.652267394E0,6.680119038E-2,-1.454439163E-1,8.286571503E-2,1.802305705E-1
1.660267902E0,9.788054228E-2,-8.252811432E-2,5.945611000E-2,1.411613234E-1
1.668269503E0,4.517930746E-2,2.780246735E-2,-9.900450706E-2,1.123211442E-1
1.676272277E0,6.448924541E-3,1.166238785E-1,-3.053131104E-1,3.268926628E-1
1.684275714E0,-3.336876631E-2,1.433706284E-1,-4.831285477E-1,5.050562397E-1
1.692280480E0,-6.616172194E-2,6.510639191E-2,-2.930648327E-1,3.074137471E-1
1.700284855E0,-4.693070054E-2,-5.218696594E-2,1.655318737E-1,1.797964718E-1
1.708285285E0,-2.585351467E-2,-2.025747299E-1,1.994113922E-1,2.854292010E-1
1.716288683E0,7.827758789E-3,-3.419294357E-1,-1.549363136E-2,3.423697788E-1
1.724291222E0,4.932343960E-2,-3.912057877E-1,-1.393644810E-1,4.182071598E-1
1.732292706E0,7.452899218E-2,-3.330669403E-1,-2.407963276E-1,4.176972932E-1
1.740292355E0,8.538940549E-2,-1.816091537E-1,-3.036947250E-1,3.640106060E-1
1.748289542E0,8.839488029E-2,-1.544952393E-2,-3.002855778E-1,3.134067180E-1
1.756289777E0,5.465805531E-2,1.199398041E-1,-2.880277634E-1,3.167539299E-1
1.764289855E0,1.330092549E-2,1.954450607E-1,-3.401887417E-1,3.925609078E-1
1.772291730E0,-1.183757186E-2,2.204933167E-1,-2.959506512E-1,3.692481804E-1
1.780291964E0,-3.812617064E-2,2.002601624E-1,-1.302404404E-1,2.419097142E-1
1.788292355E0,-3.294277191E-2,1.586570740E-1,-9.424424171E-2,1.874547157E-1
1.796290870E0,-3.688144684E-2,9.042930603E-2,-2.466115952E-1,2.652451307E-1
1.804290597E0,-2.582988143E-2,5.797863007E-2,-3.411715031E-1,3.470255017E-1
1.812285558E0,-7.574081421E-3,4.046535492E-2,-2.671198845E-1,2.702736472E-1
1.820282550E0,8.124440908E-3,3.094291687E-2,-1.710612774E-1,1.740270992E-1
1.828284074E0,-7.416307926E-4,3.632450104E-2,-1.647408009E-1,1.686995876E-1
1.836283527E0,-1.127469540E-2,4.417228699E-2,-1.609606743E-1,1.672921049E-1
1.844283800E0,-2.427315712E-2,5.984306335E-2,-1.737189293E-2,6.687421814E-2
1.852282863E0,-6.878930330E-2,5.207729340E-2,3.898024559E-2,9.467561609E-2
1.860283722E0,-9.851488471E-2,5.369853973E-2,-1.291477680E-1,1.710785248E-1
1.868286769E0,-1.118330657E-1,4.834365845E-2,-1.611073017E-1,2.019883823E-1
1.876287824E0,-1.055848300E-1,5.089950562E-2,-3.909063339E-2,1.235596764E-1
1.884285363E0,-1.064228714E-1,3.284931183E-2,2.577090263E-2,1.143199206E-1
1.892287238E0,-7.799378037E-2,5.668640137E-3,-1.082658768E-2,7.894541316E-2
1.900288917E0,-2.994886041E-2,-6.921768188E-3,-6.214475632E-2,6.933120403E-2
1.908289894E0,6.064772606E-5,-2.645874023E-2,3.413438797E-3,2.667808421E-2
1.916289738E0,-5.759966373E-2,-4.826831818E-2,1.138043404E-2,7.600701337E-2
1.924288019E0,-1.176845431E-1,-4.353523254E-2,-2.158308029E-2,1.273216302E-1
1.932286183E0,-1.706897467E-1,-1.200675964E-2,-9.840488434E-3,1.713942447E-1
1.940286574E0,-1.375041008E-1,-2.058029175E-2,-2.073574066E-2,1.405734580E-1
1.948285792E0,-9.719267488E-2,-3.128528595E-2,-1.995897293E-2,1.040362714E-1
1.956289386E0,-5.208030343E-2,-2.554607391E-2,-1.115779877E-1,1.257561419E-1
1.964291417E0,-2.127513289E-2,-2.219486237E-2,-4.253911972E-2,5.248637825E-2
1.972294074E0,-1.147049665E-2,3.437232971E-2,1.380553246E-1,1.427315732E-1
1.980296066E0,-4.226779938E-2,1.292028427E-1,3.889083862E-2,1.413946207E-1
1.988297589E0,-6.280571222E-2,1.878070831E-1,-1.479783058E-1,2.472117250E-1
1.996300324E0,-8.786329627E-2,2.222490311E-1,-2.623233795E-1,3.548635598E-1
2.004306222E0,-8.124315739E-2,2.211914062E-1,-2.336769104E-1,3.318598910E-1
2.012311456E0,-4.860752821E-2,1.635532379E-1,-1.826477051E-1,2.499450692E-1
2.020316495E0,-5.851459503E-2,9.909248352E-2,-2.063436508E-1,2.362646405E-1
2.028317199E0,-5.185207725E-2,7.138442993E-2,-3.512763977E-2,9.496486628E-2
2.036319738E0,-4.745501280E-2,8.344650269E-2,2.076525688E-1,2.287681936E-1
2.044324152E0,-5.759982765E-2,1.327066422E-1,2.590856552E-1,2.967392285E-1
2.052325441E0,-5.830006301E-2,1.749382019E-1,2.571582794E-2,1.861815663E-1
2.060326261E0,-3.577713668E-2,1.908845901E-1,-1.689987183E-1,2.574441630E-1
2.068326769E0,1.010331511E-2,1.789922714E-1,-1.303906441E-1,2.216800177E-1
2.076326613E0,7.259601355E-2,8.989048004E-2,-4.932880402E-2,1.256336360E-1
2.084328097E0,7.731750607E-2,2.104759216E-2,-4.408264160E-2,9.145642226E-2
2.092328605E0,4.908451438E-2,-1.295757294E-2,1.746463776E-1,1.818750820E-1
2.100330324E0,1.570098102E-2,-5.917358398E-2,3.205347061E-1,3.263288704E-1
2.108332902E0,6.512448192E-3,-1.016464233E-1,2.419328690E-1,2.624993723E-1
2.116336027E0,-4.801899195E-4,-1.570920944E-1,1.854586601E-1,2.430495244E-1
2.124339620E0,-2.904474735E-2,-2.484779358E-1,2.452397346E-1,3.503247199E-1
2.132343019E0,-4.670739174E-2,-3.064098358E-1,1.987776756E-1,3.682134330E-1
2.140342902E0,-9.961393476E-2,-3.983430862E-1,-3.289699554E-3,4.106226644E-1
2.148347003E0,-9.698547423E-2,-5.076723099E-1,-1.115674973E-1,5.287576599E-1
2.156353370E0,-9.732918441E-2,-6.240544319E-1,3.083801270E-2,6.323510790E-1
2.164357277E0,-1.100995243E-1,-7.486643791E-1,3.167796135E-1,8.203472322E-1
2.172362003E0,-1.099777967E-1,-8.265318871E-1,4.656291008E-1,9.550186048E-1
2.180366300E0,-1.514646709E-1,-8.925786018E-1,2.521653175E-1,9.398007525E-1
2.188371925E0,-2.055453807E-1,-9.295477867E-1,8.496093750E-2,9.557857251E-1
2.196377081E0,-2.508276999E-1,-9.289236069E-1,2.875919342E-1,1.004252320E0
2.204381222E0,-2.794811130E-1,-8.762722015E-1,2.997903824E-1,9.673866533E-1
2.212385402E0,-2.506499887E-1,-8.657922745E-1,9.650373459E-2,9.064958081E-1
2.220392902E0,-1.578336209E-1,-8.299016953E-1,3.617420197E-1,9.189698387E-1
2.228395792E0,-7.031462342E-2,-7.784304619E-1,4.686398506E-1,9.113294903E-1
2.236396847E0,-2.232567221E-2,-7.173314095E-1,3.063230515E-1,7.803182674E-1
2.244397941E0,-1.667831093E-2,-6.081714630E-1,3.606038094E-1,7.072381507E-1
2.252401456E0,-4.294424504E-2,-5.032405853E-1,4.609365463E-1,6.837819789E-1
2.260404074E0,-8.109831810E-2,-4.030613899E-1,1.913862228E-1,4.535020480E-1
2.268403449E0,-8.427110314E-2,-3.383812904E-1,2.170391083E-1,4.107426093E-1
2.276406886E0,-8.450929821E-2,-3.218274117E-1,6.961364746E-1,7.715702791E-1
2.284413292E0,-1.003817022E-1,-3.969397545E-1,6.453080177E-1,7.642382433E-1
2.292418800E0,-7.648235559E-2,-5.242676735E-1,1.930179596E-1,5.638812614E-1
2.300425441E0,-3.847206384E-2,-7.217288017E-1,1.613864899E-1,7.405526059E-1
2.308430363E0,5.826368928E-3,-9.217343330E-1,5.785865784E-1,1.088297090E0
2.316433058E0,5.410742760E-2,-1.103718281E0,6.533651352E-1,1.283747505E0
2.324436183E0,5.976180732E-2,-1.272681236E0,3.431448936E-1,1.319483771E0
2.332439074E0,2.423901856E-2,-1.358537674E0,-1.539473534E-1,1.367447231E0
2.340441730E0,4.904076457E-3,-1.320975780E0,7.266998291E-3,1.321004872E0
2.348444347E0,-6.186008453E-3,-1.168127537E0,1.859374046E-1,1.182849495E0
2.356447667E0,-4.593108594E-2,-8.716468811E-1,1.597595215E-1,8.873562164E-1
2.364449699E0,-8.189737797E-3,-5.403079987E-1,-2.258124352E-1,5.856543871E-1
2.372451925E0,7.595144212E-2,-2.532391548E-1,-4.898214340E-2,2.688827653E-1
2.380450402E0,1.862930357E-1,-9.028530121E-2,2.912702560E-1,3.573442218E-1
2.388453722E0,3.158374429E-1,-1.122331619E-1,2.263355255E-2,3.359491787E-1
2.396457042E0,4.668295979E-1,-3.248686790E-1,-4.372735023E-1,7.174103763E-1
2.404457980E0,5.147375464E-1,-6.764893532E-1,-4.002418518E-1,9.395669889E-1
2.412460206E0,5.741263628E-1,-9.819006920E-1,-2.691688538E-1,1.168846406E0
2.420462472E0,5.372720957E-1,-1.350740433E0,-5.640478134E-1,1.559266160E0
2.428465245E0,3.818713725E-1,-1.621706963E0,-6.131892204E-1,1.775319756E0
2.436467824E0,2.477875948E-1,-1.689019680E0,1.696290970E-1,1.715505815E0
2.444466964E0,5.331379175E-2,-1.509764671E0,6.784520149E-1,1.656058230E0
2.452468800E0,-1.564509273E-1,-1.065096855E0,7.986593246E-2,1.079484493E0
2.460470206E0,-2.730967402E-1,-5.783052444E-1,-3.085556030E-1,7.100882660E-1
2.468473175E0,-3.363391161E-1,-2.049174309E-1,1.052708626E-1,4.076727965E-1
2.476476535E0,-3.915198743E-1,-1.171674728E-1,1.001901627E-1,4.207779668E-1
2.484476105E0,-4.180532098E-1,-3.077116013E-1,-4.153752327E-1,6.648244127E-1
2.492476417E0,-4.154070020E-1,-7.168617249E-1,-2.967209816E-1,8.800551408E-1
2.500480011E0,-3.676079512E-1,-1.156777859E0,1.848812103E-1,1.227783239E0
2.508482316E0,-3.062487841E-1,-1.458274364E0,3.112344742E-1,1.522241550E0
2.516482785E0,-1.970722973E-1,-1.616027832E0,1.770982742E-1,1.637604117E0
2.524484035E0,-9.864413738E-2,-1.552533627E0,2.079553604E-1,1.569502074E0
2.532484503E0,1.270943880E-2,-1.374827862E0,5.644187927E-1,1.486230720E0
2.540485050E0,9.876990318E-2,-1.071432590E0,8.454256058E-1,1.368381432E0
2.548484191E0,1.376109123E-1,-7.522759438E-1,9.598655701E-1,1.227272493E0
2.556483292E0,1.284004450E-1,-4.946174622E-1,5.290584564E-1,7.355514655E-1
2.564483370E0,8.914589882E-3,-4.206824303E-1,7.667922974E-2,4.277065364E-1
2.572484855E0,-1.250476241E-1,-6.453576088E-1,4.652814865E-1,8.053634044E-1
2.580486417E0,-6.775999069E-2,-9.020776749E-1,7.153253555E-1,1.153267494E0
2.588486535E0,8.932411671E-3,-1.151489735E0,4.614543915E-1,1.240543652E0
2.596491222E0,-3.826332092E-2,-1.291533709E0,2.905597687E-1,1.324367163E0
2.604495206E0,-4.358506203E-2,-1.276750088E0,4.811830521E-1,1.365110828E0
2.612498683E0,-4.608142376E-2,-1.077611685E0,6.858196259E-1,1.278170176E0
2.620500792E0,-1.039444208E-1,-8.222234249E-1,8.334188461E-1,1.175347938E0
2.628505402E0,-1.170119941E-1,-6.954917908E-1,9.554500580E-1,1.187554399E0
2.636508683E0,-5.650824308E-2,-6.379063129E-1,8.738994598E-1,1.083428775E0
2.644511925E0,2.441436052E-2,-6.809675694E-1,5.050916672E-1,8.481924804E-1
2.652517003E0,5.636560917E-2,-7.781872749E-1,5.786628723E-1,9.713924215E-1
2.660522706E0,1.180553436E-1,-8.933241367E-1,8.144474030E-1,1.214615021E0
2.668524620E0,8.842712641E-2,-9.604594707E-1,5.065507889E-1,1.089447316E0
2.676530285E0,-2.671599388E-3,-9.703063965E-1,4.743099213E-2,9.714686508E-1
2.684534855E0,-1.362532377E-1,-8.601477146E-1,5.705986023E-1,1.041154072E0
2.692536183E0,-1.813315749E-1,-5.529170036E-1,1.261878967E0,1.389581549E0
2.700539816E0,-1.772137582E-1,-2.042024136E-1,9.945077896E-1,1.030606174E0
2.708541378E0,-1.284864545E-1,7.979154587E-2,4.042043686E-1,4.315745954E-1
2.716544425E0,-2.639526129E-2,2.102015018E-1,3.280029297E-1,3.904706174E-1
2.724548331E0,3.909200430E-2,1.904654503E-1,-3.415298462E-2,1.974125095E-1
2.732551574E0,8.281499147E-2,-1.391530037E-1,-3.450193405E-1,3.811301964E-1
2.740551925E0,9.981703758E-2,-6.746399403E-1,1.802835464E-1,7.054109775E-1
2.748553878E0,1.442158818E-1,-1.053000927E0,3.666019440E-1,1.124280284E0
2.756557902E0,7.939302921E-2,-1.212577105E0,4.078960419E-1,1.281805628E0
2.764561613E0,8.880913258E-3,-1.052092075E0,5.336704254E-1,1.179737568E0
2.772563097E0,-6.011420488E-2,-5.542175770E-1,7.494907379E-1,9.340809421E-1
2.780567511E0,-1.370010972E-1,1.472780704E-1,5.053148270E-1,5.438779321E-1
2.788572238E0,-1.521795988E-1,7.358913422E-1,-4.637241364E-2,7.528911598E-1
2.796575128E0,-4.300624132E-2,1.048518181E0,-2.000417709E-1,1.068296131E0
2.804576964E0,1.068638563E-1,7.208967209E-1,-1.902399063E-1,7.531953186E-1
2.812579894E0,1.706138253E-1,1.052253246E-1,-1.183719635E-1,2.327946908E-1
2.820580988E0,1.520814300E-1,-6.427721977E-1,2.703599930E-1,7.137081934E-1
2.828581769E0,9.244352579E-2,-1.259094000E0,4.091529846E-1,1.327128355E0
2.836582355E0,9.296923876E-2,-1.651995301E0,6.279096603E-1,1.769746393E0
2.844581535E0,5.434066057E-2,-1.904273748E0,6.599702835E-1,2.016128020E0
2.852582433E0,4.093348980E-3,-1.767808914E0,8.263425827E-1,1.951411586E0
2.860585363E0,3.591817617E-2,-1.262503624E0,7.880640030E-1,1.488707624E0
2.868585988E0,1.801043153E-1,-5.777491331E-1,5.236654282E-1,8.002856402E-1
2.876587238E0,3.207048178E-1,-1.067478657E-1,6.001491547E-1,6.887856668E-1
2.884587667E0,4.192330837E-1,-6.263494492E-3,4.495973587E-1,6.147628769E-1
2.892586222E0,4.736067653E-1,-2.189371586E-1,2.539873123E-1,5.802985459E-1
2.900585441E0,4.562969208E-1,-7.245647907E-1,4.630937576E-1,9.734766788E-1
2.908584855E0,3.995814919E-1,-1.210340738E0,7.490301132E-1,1.478389726E0
2.916585285E0,3.176628947E-1,-1.596122742E0,4.081926346E-1,1.677837521E0
2.924582394E0,2.363708615E-1,-1.654250979E0,-9.256649017E-2,1.673614664E0
2.932581300E0,8.880949020E-2,-1.499165535E0,5.060005188E-2,1.502645930E0
2.940578722E0,1.031588912E-1,-1.143364906E0,6.606025696E-1,1.324507765E0
2.948575402E0,3.062409759E-1,-6.903083324E-1,5.698337555E-1,9.460547754E-1
2.956574308E0,4.770107269E-1,-3.544108868E-1,3.843193054E-1,7.077058985E-1
2.964571456E0,5.085844994E-1,-3.095716238E-1,5.371284485E-1,8.018726541E-1
2.972569230E0,4.494628310E-1,-5.203855038E-1,9.464578629E-1,1.169871957E0
2.980565441E0,3.739354610E-1,-7.665567994E-1,7.001152039E-1,1.103448392E0
2.988563800E0,3.016350269E-1,-1.101020932E0,6.863460541E-1,1.332029162E0
2.996561925E0,2.940438390E-1,-1.331039906E0,7.402067184E-1,1.551139902E0
3.004559230E0,2.557210922E-1,-1.398919821E0,7.182931900E-1,1.593209041E0
3.012558331E0,2.819341421E-1,-1.203184962E0,2.781009674E-1,1.266681121E0
3.020556066E0,2.960031033E-1,-8.486171961E-1,-9.205818176E-2,9.034620587E-1
3.028555714E0,3.467462063E-1,-5.705629587E-1,1.629409790E-1,6.872588916E-1
3.036552667E0,4.724065065E-1,-3.870086670E-1,4.779348373E-1,7.754774816E-1
3.044550831E0,5.135552883E-1,-4.086291194E-1,4.030494690E-1,7.701724910E-1
3.052548722E0,4.650487900E-1,-5.280356407E-1,6.279020309E-1,9.430551285E-1
3.060549816E0,3.541700840E-1,-7.128690481E-1,1.018435478E0,1.292605722E0
3.068549542E0,3.298999071E-1,-8.190525174E-1,1.052817345E0,1.374083453E0
3.076548917E0,2.600635290E-1,-7.382184267E-1,7.862691879E-1,1.109422697E0
3.084546847E0,1.439790726E-1,-4.284682572E-1,8.008956909E-3,4.520831385E-1
3.092547120E0,3.895807266E-2,-1.132551432E-1,-1.281051636E-1,1.753721523E-1
3.100546847E0,2.601814270E-2,2.511146665E-1,-1.036119461E-1,2.728936695E-1
3.108548410E0,2.634942532E-2,4.424747825E-1,-7.685241699E-1,8.871908617E-1
3.116551847E0,1.115723848E-1,2.576205730E-1,-5.404319763E-1,6.090020343E-1
3.124551808E0,3.600716591E-1,-1.776821017E-1,1.473474503E-1,4.277076105E-1
3.132550753E0,5.827511549E-1,-6.773003340E-1,4.426736832E-1,9.971432398E-1
3.140550011E0,7.055455446E-1,-9.775238633E-1,2.932443619E-1,1.240701283E0
3.148548253E0,6.454850435E-1,-1.075329900E0,2.379045486E-1,1.276551569E0
3.156548527E0,3.774855137E-1,-7.744332552E-1,4.773063660E-1,9.849180406E-1
3.164548136E0,1.444288492E-1,-1.074401289E-1,1.375350952E-1,2.265369202E-1
3.172551222E0,-3.918886185E-3,7.228628397E-1,-7.646741867E-1,1.052270238E0
3.180552511E0,-6.528913975E-2,1.149142981E0,-5.554008484E-2,1.152335438E0
3.188552589E0,6.480979919E-2,1.155491710E0,2.204360962E-1,1.178114372E0
3.196552238E0,2.958823442E-1,8.013201952E-1,-7.807254791E-2,8.577620530E-1
3.204553956E0,4.236140251E-1,2.177714705E-1,3.541278839E-2,4.776267593E-1
3.212558995E0,4.728772640E-1,-3.259468079E-1,5.392198563E-1,7.877894908E-1
3.220561222E0,4.809285402E-1,-7.617527246E-1,7.149276733E-1,1.150078716E0
3.228565206E0,3.621449471E-1,-8.015025854E-1,8.521537781E-1,1.224631136E0
3.236569230E0,1.890463829E-1,-3.924880922E-1,1.121100426E0,1.202768308E0
3.244571613E0,1.359394789E-1,4.364169240E-1,1.167469978E0,1.253764501E0
3.252571339E0,2.454626560E-1,1.373828292E0,6.010293961E-1,1.519504007E0
3.260572394E0,3.999530077E-1,2.119773626E0,8.021640778E-2,2.158665631E0
3.268572160E0,4.307039976E-1,2.574092150E0,-9.144058228E-1,2.765428418E0
3.276569816E0,3.500323296E-1,2.104033470E0,-6.545600891E-1,2.231127156E0
3.284570792E0,3.635981083E-1,1.160073876E0,6.153593063E-1,1.362586533E0
3.292575870E0,3.340399265E-1,-4.683440924E-2,6.406707764E-1,7.240408677E-1
3.300580245E0,1.805770397E-1,-9.291251302E-1,5.295076370E-1,1.084555168E0
3.308582081E0,-3.931879997E-2,-1.375082135E0,6.671752930E-1,1.528894934E0
3.316584620E0,-1.028620005E-1,-1.525209188E0,3.883085251E-1,1.577221345E0
3.324585245E0,3.982138634E-2,-1.049643278E0,-4.912786484E-1,1.159608324E0
3.332584620E0,1.743857861E-1,4.971033335E-2,-1.466345787E0,1.477515308E0
3.340586535E0,2.862372398E-1,1.423798680E0,-2.390980721E0,2.797485164E0
3.348588878E0,2.943303585E-1,2.187361717E0,-1.706253052E0,2.789709863E0
3.356591613E0,3.010408878E-1,2.131959200E0,-8.365068436E-1,2.309895960E0
3.364591535E0,4.918860197E-1,1.520865440E0,-1.405349731E0,2.128377648E0
3.372590910E0,5.656340122E-1,6.598323584E-1,-3.966264725E-1,9.553183425E-1
3.380590089E0,6.313883066E-1,-2.363079190E-1,1.109614372E0,1.298359227E0
3.388589308E0,8.201118708E-1,-1.167682171E0,1.897053719E0,2.373789785E0
3.396589581E0,9.774390459E-1,-1.700703382E0,2.383870125E0,3.087169554E0
3.404590285E0,9.741392136E-1,-1.695679903E0,2.833307266E0,3.442659961E0
3.412591808E0,1.084468484E0,-1.240406275E0,3.131098747E0,3.538143437E0
3.420591144E0,1.228251100E0,-4.732789993E-1,2.756599426E0,3.054739624E0
3.428592433E0,1.074410677E0,1.782886386E-1,2.239689827E0,2.490452903E0
3.436593644E0,5.809822083E-1,5.434656143E-1,1.420060158E0,1.627718051E0
3.444593253E0,-1.025134325E-1,4.056300521E-1,3.339729309E-1,5.353341588E-1
3.452594386E0,-6.753003001E-1,-9.444248676E-2,2.711410522E-1,7.338033448E-1
3.460592745E0,-1.035351515E0,-8.818376064E-1,3.423843384E-1,1.402432657E0
3.468594542E0,-1.126085520E0,-1.348071814E0,2.572078705E-1,1.775252687E0
3.476601456E0,-1.308894873E0,-2.351829052E0,4.746675491E-1,2.733059633E0
3.484603370E0,-1.032273412E0,-3.067225933E0,1.031044960E0,3.396544867E0
3.492606456E0,-8.946290612E-1,-3.786813498E0,8.463878632E-1,3.982045961E0
3.500607589E0,-4.249231219E-1,-3.659080029E0,1.679210663E-1,3.687495600E0
3.508608410E0,-8.212006092E-2,-2.882369041E0,-3.782253265E-1,2.908238194E0
3.516610011E0,2.867228985E-1,-2.183424950E0,-5.970277786E-1,2.281665335E0
3.524610636E0,6.843413115E-1,-1.649416327E0,5.486774445E-2,1.786591090E0
3.532611574E0,9.319330454E-1,-1.368041992E0,1.047174454E0,1.958727247E0
3.540614308E0,1.101420522E0,-1.302477360E0,1.267544746E0,2.125145671E0
3.548617941E0,1.266117334E0,-1.340310454E0,6.962223053E-1,1.970840104E0
3.556620050E0,9.842329025E-1,-1.446910977E0,7.388677597E-1,1.899523980E0
3.564622238E0,4.167107344E-1,-1.599632263E0,1.031979561E0,1.948705475E0
3.572627667E0,-1.593078971E-1,-1.652310252E0,4.725122452E-1,1.725913091E0
3.580630206E0,-7.057249546E-1,-1.556373239E0,-3.857669830E-1,1.751902262E0
3.588631847E0,-1.053354740E0,-1.312538981E0,-6.685447693E-1,1.810874622E0
3.596632160E0,-1.241217375E0,-1.021314740E0,-7.084665298E-1,1.756595911E0
3.604635245E0,-1.096338630E0,-8.354450464E-1,-2.807798386E-1,1.406685514E0
3.612637160E0,-6.798495054E-1,-7.329926491E-1,2.214298248E-1,1.023965205E0
3.620643214E0,-1.607089043E-1,-6.531096697E-1,5.892372131E-1,8.941924211E-1
3.628646417E0,1.622823477E-1,-6.033142805E-1,5.660200119E-1,8.430316336E-1
3.636655402E0,2.337344885E-1,-6.126060486E-1,5.255126953E-1,8.402866028E-1
3.644661769E0,-2.629876137E-2,-6.771606207E-1,4.799785614E-1,8.304321468E-1
3.652667394E0,-4.422560334E-1,-6.659868956E-1,2.356443405E-1,8.334609765E-1
3.660671378E0,-7.859856486E-1,-7.593350410E-1,-8.496761322E-2,1.096167250E0
3.668674191E0,-1.117920637E0,-7.526038885E-1,-3.523511887E-1,1.392950295E0
3.676679425E0,-9.926357865E-1,-7.856316566E-1,-2.236948013E-1,1.285528012E0
3.684679113E0,-7.060478926E-1,-7.326016426E-1,-1.049232483E-2,1.017506207E0
3.692682355E0,-2.437485456E-1,-5.051008463E-1,1.190404892E-1,5.733331113E-1
3.700685050E0,1.217968464E-1,-2.396687269E-1,3.494548798E-2,2.711028543E-1
3.708689542E0,2.947332859E-1,7.806777954E-3,8.904170990E-2,3.079887688E-1
3.716693566E0,1.591624022E-1,1.897783279E-1,3.365373611E-1,4.178586836E-1
3.724697667E0,-2.217713594E-1,2.995983362E-1,6.580858231E-1,7.563191452E-1
3.732702042E0,-5.242602825E-1,4.085384607E-1,4.757947922E-1,8.173941534E-1
3.740708019E0,-5.992864966E-1,3.808784485E-1,4.248018265E-1,8.274474541E-1
3.748711456E0,-4.929480851E-1,4.204986095E-1,6.755828857E-1,9.360711141E-1
3.756717824E0,-9.773170948E-2,4.839946032E-1,7.806301117E-1,9.236804827E-1
3.764721183E0,2.293942571E-1,7.460002899E-1,5.908918381E-1,9.789235527E-1
3.772722199E0,3.148320317E-1,1.044581056E0,4.046831131E-1,1.163631046E0
3.780725519E0,5.047561526E-1,1.244052529E0,6.382379532E-1,1.486537303E0
3.788723956E0,5.432948470E-1,1.175230265E0,4.321794510E-1,1.364959539E0
3.796722706E0,3.055673242E-1,1.180123568E0,4.667453766E-1,1.305340672E0
3.804719464E0,-7.022023201E-4,1.215447783E0,-6.206703186E-2,1.217031686E0
3.812719503E0,-2.053241730E-1,1.311233282E0,-4.384183884E-1,1.397748697E0
3.820720206E0,-3.369739652E-1,1.412551403E0,-9.846496582E-2,1.455523366E0
3.828720949E0,-3.574719131E-1,1.625859022E0,4.531774521E-1,1.725274915E0
3.836720245E0,-6.168884039E-2,1.929164529E0,9.025011063E-1,2.130725121E0
3.844719464E0,3.955177069E-1,2.704142570E0,1.653071404E0,3.193973444E0
3.852717863E0,7.906934619E-1,4.085155487E0,8.989543915E-1,4.256971987E0
3.860718019E0,8.303853869E-1,5.016849518E0,-1.448438644E0,5.287371131E0
3.868719425E0,5.738514662E-1,4.202121735E0,-2.171596527E0,4.764762749E0
3.876717511E0,2.038123012E-1,3.094628334E0,-1.234882355E0,3.338142958E0
3.884718136E0,-3.188775182E-1,2.077795982E0,1.720333099E-1,2.109150179E0
3.892717003E0,-7.751260996E-1,1.249747157E0,8.330078125E-1,1.690145095E0
3.900715285E0,-9.278592467E-1,4.211457372E-1,5.117931366E-1,1.140271340E0
3.908715324E0,-8.155645132E-1,-5.100225210E-1,1.106147766E-1,9.682479414E-1
3.916711339E0,-4.155709743E-1,-1.091852069E0,1.631870270E-1,1.179605943E0
3.924711886E0,2.751421928E-2,-1.223543525E0,3.634757996E-1,1.276687294E0
3.932710363E0,3.360114694E-1,-8.551990986E-1,4.031829834E-1,1.003407058E0
3.940708370E0,4.271544218E-1,-4.288897514E-1,6.872301102E-1,9.158015851E-1
3.948706574E0,3.603547215E-1,-3.806674480E-2,9.355287552E-1,1.003254033E0
3.956702745E0,-4.193121195E-2,1.531454325E-1,6.142253876E-1,6.344167217E-1
3.964701925E0,-1.920585334E-1,2.875506878E-2,2.667675018E-1,3.299670200E-1
3.972699660E0,-1.546498537E-1,-2.358698845E-1,7.278442383E-2,2.912880911E-1
3.980697081E0,-7.263284922E-2,-3.007999659E-1,-1.210107803E-1,3.322645922E-1
3.988695792E0,-5.359601974E-2,-2.696299553E-1,-4.751148224E-1,5.489143290E-1
3.996695636E0,-1.706337929E-2,-2.437093258E-1,-7.477512360E-1,7.866494170E-1
4.004697394E0,-3.406167030E-2,-2.646548748E-1,-7.182455063E-1,7.662108114E-1
4.012697550E0,-8.131736517E-2,-3.239901066E-1,-5.065393448E-1,6.067653672E-1
4.020696730E0,-1.381489933E-1,-6.006625891E-1,-2.564373016E-1,6.675633153E-1
4.028694933E0,-2.541379035E-1,-8.760988712E-1,1.127243042E-3,9.122152031E-1
4.036693839E0,-3.682666123E-1,-9.610757828E-1,2.637023926E-1,1.062462192E0
4.044692706E0,-5.637025833E-1,-8.912311792E-1,4.353809357E-1,1.140881316E0
4.052690324E0,-4.248594642E-1,-8.059816360E-1,5.466718674E-1,1.062526279E0
4.060685675E0,-2.767659128E-1,-6.205964088E-1,3.559751511E-1,7.671098887E-1
4.068679308E0,-1.258640885E-1,-4.735280275E-1,1.294956207E-1,5.067935254E-1
4.076673644E0,-1.306096613E-1,-4.464669228E-1,1.355485916E-1,4.845255591E-1
4.084666339E0,-1.235138476E-1,-5.395878553E-1,2.639923096E-1,6.132720960E-1
4.092663292E0,-1.009172201E-1,-7.895349264E-1,2.442541122E-1,8.325921911E-1
4.100660011E0,-2.136961222E-1,-9.890683889E-1,1.168956757E-1,1.018620101E0
4.108653331E0,-3.853928447E-1,-9.861989021E-1,1.713209152E-1,1.072598142E0
4.116652120E0,-5.655618906E-1,-8.540437222E-1,1.248207092E-1,1.031906556E0
4.124648917E0,-5.963125229E-1,-7.823623419E-1,3.078336716E-1,1.030747801E0
4.132643956E0,-4.611026943E-1,-7.373108864E-1,5.121097565E-1,1.009207333E0
4.140639035E0,-8.595556021E-2,-6.817193031E-1,2.518110275E-1,7.318048648E-1
4.148634425E0,3.464691043E-1,-6.965399981E-1,3.479003906E-3,7.779594543E-1
4.156629152E0,5.713933706E-1,-6.063865423E-1,1.627445221E-2,8.333425949E-1
4.164623488E0,5.042891502E-1,-6.209206581E-1,-8.323764801E-2,8.042254141E-1
4.172617589E0,3.267400861E-1,-8.736506701E-1,2.574825287E-2,9.331063978E-1
4.180610324E0,4.120421410E-2,-1.089446306E0,2.426443100E-1,1.116900758E0
4.188604308E0,-2.675009072E-1,-1.158808112E0,3.579139709E-2,1.189820995E0
4.196602472E0,-3.879994452E-1,-1.032773495E0,2.744960785E-2,1.103593286E0
4.204603527E0,-3.662059307E-1,-6.970192194E-1,-1.486797333E-1,8.012791268E-1
4.212603292E0,-2.063550055E-1,-4.166136980E-1,-3.990192413E-1,6.126709693E-1
4.220599972E0,4.117655754E-2,-3.230952024E-1,-3.094825745E-1,4.492944276E-1
4.228595636E0,3.285403252E-1,-2.725416422E-1,-3.443717957E-1,5.484611432E-1
4.236592120E0,5.586553812E-1,-4.183356762E-1,-5.658788681E-1,8.985095805E-1
4.244592980E0,5.264372826E-1,-6.687871218E-1,-3.969383240E-1,9.391338881E-1
4.252590324E0,3.566317558E-1,-8.099939823E-1,7.158184052E-2,8.879191520E-1
4.260586378E0,3.525793552E-3,-8.582253456E-1,9.198007584E-1,1.258012961E0
4.268584542E0,-1.121991277E-1,-9.759303331E-1,1.526838303E0,1.815561583E0
4.276584933E0,-9.650617838E-2,-1.082732797E0,9.694442749E-1,1.456518436E0
4.284586300E0,4.771918058E-2,-1.173560381E0,9.132480621E-2,1.178075256E0
4.292584425E0,9.529477358E-2,-1.192206264E0,-4.290285110E-1,1.270630683E0
4.300580363E0,3.198229074E-1,-1.376729608E0,-3.975448608E-1,1.468234661E0
4.308575910E0,5.484716296E-1,-1.578290343E0,1.797246933E-1,1.680512571E0
4.316573175E0,7.798356414E-1,-1.549059153E0,3.510084152E-1,1.769444770E0
4.324570792E0,7.150683403E-1,-1.350553870E0,5.825643539E-1,1.635450921E0
4.332565675E0,4.222693443E-1,-1.289926171E0,1.335222244E0,1.903953615E0
4.340565480E0,2.794086933E-3,-1.372218847E0,2.375063896E0,2.742976646E0
4.348565988E0,-4.688015282E-1,-1.560696959E0,3.029680252E0,3.440132599E0
4.356561769E0,-7.053574920E-1,-1.903967381E0,3.519269943E0,4.062989283E0
4.364557745E0,-5.444753766E-1,-2.227702141E0,3.661895752E0,4.320716464E0
4.372556183E0,4.121494293E-2,-2.333704472E0,2.980826378E0,3.785921437E0
4.380554581E0,6.530513167E-1,-2.264126301E0,1.298633575E0,2.690574863E0
4.388551495E0,1.075100422E0,-2.205054760E0,1.050409317E0,2.668607717E0
4.396551261E0,1.099829912E0,-2.263219357E0,1.752996445E0,3.066722065E0
4.404554347E0,8.872547150E-1,-2.116988897E0,2.128187180E0,3.130182677E0
4.412554620E0,5.994414687E-1,-1.793582439E0,2.037280083E0,2.779708290E0
4.420556417E0,1.654630899E-1,-1.224170804E0,1.686504364E0,2.090518874E0
4.428555558E0,-1.933897436E-1,-5.878198743E-1,1.602972984E0,1.718270696E0
4.436554464E0,-1.766947508E-1,-2.263283134E-1,1.855575562E0,1.877659768E0
4.444552902E0,1.553028226E-1,2.196145058E-2,1.821411133E0,1.828152014E0
4.452548605E0,5.441231132E-1,4.502347112E-2,1.638998032E0,1.727544970E0
4.460546652E0,8.585504293E-1,-7.196030021E-2,1.080823898E0,1.382196594E0
4.468543527E0,1.000660419E0,-3.303808570E-1,5.257444382E-1,1.177658694E0
4.476542003E0,1.129455090E0,-5.517268777E-1,1.677017212E-1,1.268146369E0
4.484537902E0,1.269882321E0,-6.356221437E-1,6.482067108E-1,1.561021640E0
4.492535558E0,1.385938644E0,-6.009548903E-1,1.557904243E0,2.170031875E0
4.500533527E0,1.557971954E0,-5.400811434E-1,2.180449486E0,2.733738139E0
4.508532785E0,1.884081841E0,-3.899765313E-1,1.859641075E0,2.675838374E0
4.516530636E0,2.134444237E0,-1.826675236E-1,1.196349144E0,2.453664789E0
4.524529308E0,2.159441710E0,-6.488281488E-2,1.026559830E0,2.391907891E0
4.532526925E0,1.971611738E0,-7.710778713E-2,9.099082947E-1,2.172816504E0
4.540525558E0,1.644810438E0,-2.512486577E-1,1.344369888E0,2.139125443E0
4.548525792E0,1.260180473E0,-5.156062245E-1,1.808035851E0,2.263382036E0
4.556519542E0,8.171759248E-1,-9.478434324E-1,2.827997208E0,3.092531628E0
4.564512042E0,2.537592649E-1,-1.258714080E0,3.391986847E0,3.626889807E0
4.572506027E0,-7.062393427E-2,-1.294520497E0,3.071609497E0,3.333999994E0
4.580501456E0,-1.439924240E-1,-1.076410890E0,2.168343544E0,2.425099575E0
4.588497081E0,6.620168686E-2,-7.732648849E-1,8.926963806E-1,1.182889713E0
4.596494660E0,3.482660055E-1,-6.820853353E-1,6.138877869E-1,9.815232193E-1
4.604492745E0,5.216476917E-1,-8.248544335E-1,6.569671631E-1,1.176480771E0
4.612488917E0,2.524906397E-1,-1.242939472E0,9.671249390E-1,1.594986113E0
4.620481769E0,-3.770798445E-2,-1.824705243E0,1.080423355E0,2.120916251E0
4.628477199E0,-4.410819709E-1,-2.445525646E0,1.501742363E0,2.903511515E0
4.636473800E0,-7.392888665E-1,-2.772267818E0,1.502261162E0,3.238642537E0
4.644469738E0,-6.966988444E-1,-2.721361399E0,7.905244827E-1,2.918240240E0
4.652464074E0,-3.759196699E-1,-2.307709694E0,6.910820007E-1,2.438120990E0
4.660458566E0,-3.540199995E-2,-1.787373424E0,7.644519806E-1,1.944310646E0
4.668452589E0,6.497454643E-2,-1.387205005E0,5.351524353E-1,1.488269984E0
4.676446535E0,-2.700704336E-2,-8.082126379E-1,-4.615488052E-1,9.311092031E-1
4.684437785E0,-3.032620847E-1,-2.996492386E-1,-1.222089767E0,1.294318723E0
4.692432550E0,-8.115628958E-1,1.087360382E-1,-9.731769562E-1,1.271822019E0
4.700429074E0,-1.298385859E0,2.033939362E-1,-4.261188507E-1,1.381575986E0
4.708424308E0,-1.326358438E0,1.352701187E-1,-1.222019196E-1,1.338827106E0
4.716416847E0,-9.559075236E-1,4.598379135E-3,1.409244537E-2,9.560224557E-1
4.724410558E0,-2.807987928E-1,-2.202961445E-1,1.287889481E-1,3.794271293E-1
4.732404894E0,1.261547208E-1,-3.366894722E-1,5.278434753E-1,6.386654435E-1
4.740400324E0,2.478665709E-1,-1.964471340E-1,6.848726273E-1,7.543737993E-1
4.748400089E0,4.373776913E-2,2.649228573E-1,7.352857590E-1,7.827785511E-1
4.756400402E0,-2.050093412E-1,8.030543327E-1,8.216075897E-1,1.167032186E0
4.764400480E0,-4.174741209E-1,1.534472227E0,4.437046051E-1,1.650988623E0
4.772397433E0,-4.721670747E-1,2.071875095E0,-2.306900024E-1,2.137481236E0
4.780394347E0,-5.542724133E-1,2.311307192E0,-5.738286972E-1,2.445125399E0
4.788392433E0,-6.030444503E-1,2.142727375E0,-7.022838593E-1,2.334126353E0
4.796392199E0,-5.292017460E-1,1.658925533E0,-3.192520142E-1,1.770313605E0
4.804391886E0,-4.397786856E-1,5.874199867E-1,2.788486481E-1,7.849994278E-1
4.812389699E0,-4.257014394E-1,-2.277350426E-1,5.510282516E-1,7.326097865E-1
4.820385714E0,-5.205912590E-1,-8.728601933E-1,2.499694824E-1,1.046606382E0
4.828380910E0,-6.319330931E-1,-1.111840725E0,-4.107284546E-1,1.343215208E0
4.836377902E0,-7.232247591E-1,-9.564430714E-1,-1.055040359E0,1.597168608E0
4.844375089E0,-7.802472115E-1,-6.442236900E-1,-1.437161446E0,1.757624219E0
4.852372433E0,-7.555549741E-1,-4.442787170E-1,-1.602465153E0,1.826510734E0
4.860372003E0,-5.628128052E-1,-3.888173103E-1,-2.210279942E0,2.313714454E0
4.868371535E0,-2.727325261E-1,-5.902032852E-1,-2.377339840E0,2.464643516E0
4.876373136E0,-5.731487274E-2,-8.800096512E-1,-1.886547565E0,2.082489783E0
4.884370245E0,1.459133625E-2,-1.203814983E0,-1.360991001E0,1.817052538E0
4.892370792E0,-4.800492525E-2,-1.438561916E0,-1.279193878E0,1.925643227E0
4.900368370E0,-1.667008400E-1,-1.527187824E0,-1.586166382E0,2.208170195E0
4.908365050E0,-2.664548159E-1,-1.459411144E0,-1.946677208E0,2.447535742E0
4.916362355E0,-2.827785313E-1,-1.240121365E0,-2.110678196E0,2.464310683E0
4.924360597E0,-2.444545329E-1,-1.029354095E0,-2.207027435E0,2.447508524E0
4.932357824E0,-3.082731962E-1,-7.653841972E-1,-2.285210609E0,2.429615785E0
4.940355831E0,-3.377489746E-1,-5.103683472E-1,-2.354863644E0,2.433091244E0
4.948353097E0,-4.095470309E-1,-1.836738586E-1,-2.305241108E0,2.348531759E0
4.956353995E0,-4.105371237E-1,3.123188019E-2,-2.044119358E0,2.085171482E0
4.964353761E0,-4.464306235E-1,9.703016281E-2,-1.936971188E0,1.990118724E0
4.972354464E0,-4.055058658E-1,3.272390366E-2,-1.866722107E0,1.910538481E0
4.980354386E0,-3.479720354E-1,-1.645097733E-1,-1.694261074E0,1.737431607E0
4.988352394E0,-2.574278712E-1,-4.744753838E-1,-1.602688313E0,1.691155175E0
4.996352824E0,-1.295120418E-1,-8.475999832E-1,-1.394965649E0,1.637415116E0
5.004351847E0,-9.133905172E-2,-1.133170128E0,-1.437273502E0,1.832531714E0
5.012350870E0,-1.282170117E-1,-1.207879066E0,-1.364684582E0,1.826957977E0
5.020350089E0,-2.211577743E-1,-1.073525429E0,-1.039133072E0,1.510352657E0
5.028347199E0,-3.259416819E-1,-8.230762482E-1,-1.028618813E0,1.357110589E0
5.036344972E0,-3.920800388E-1,-5.892796516E-1,-8.604073524E-1,1.114126598E0
5.044341456E0,-4.476187527E-1,-2.838840485E-1,-1.001108646E0,1.132771479E0
5.052340128E0,-5.011039972E-1,-1.490402222E-2,-1.033936977E0,1.149066151E0
5.060339464E0,-4.804719687E-1,1.871275902E-1,-1.163265705E0,1.272421765E0
5.068334972E0,-4.512012005E-1,3.339281082E-1,-1.364884853E0,1.475805261E0
5.076332081E0,-3.754048944E-1,4.167094231E-1,-1.225773335E0,1.347996975E0
5.084331339E0,-3.173072338E-1,4.165401459E-1,-1.129547119E0,1.245016573E0
5.092330167E0,-2.582740188E-1,3.613510132E-1,-1.132845879E0,1.216807219E0
5.100325831E0,-1.967071146E-1,2.226667404E-1,-1.087712765E0,1.127560741E0
5.108323292E0,-1.363359392E-1,8.822917938E-2,-9.212803841E-1,9.354835234E-1
5.116321730E0,-8.996856213E-2,-4.961490631E-2,-6.160941124E-1,6.246022226E-1
5.124320792E0,-5.762523413E-2,-1.793031693E-1,-7.198152542E-1,7.440458953E-1
5.132320128E0,-5.455443263E-2,-2.463502884E-1,-8.652873039E-1,9.013250074E-1
5.140320753E0,5.725353956E-3,-2.952270508E-1,-1.070777416E0,1.110745725E0
5.148317550E0,2.794453502E-2,-2.703018188E-1,-9.231472015E-1,9.623121770E-1
5.156313292E0,2.161160111E-2,-2.122030258E-1,-7.530589104E-1,7.826844242E-1
5.164312394E0,4.653838277E-2,-2.391099930E-1,-8.990612030E-1,9.314775663E-1
5.172309816E0,-2.700090408E-5,-2.218503952E-1,-8.749730587E-1,9.026602085E-1
5.180306261E0,-2.211502194E-2,-2.415208817E-1,-7.915580273E-1,8.278801369E-1
5.188300363E0,-7.945060730E-3,-3.489408493E-1,-9.422965050E-1,1.004860957E0
5.196297863E0,-2.710321546E-2,-3.956241608E-1,-1.104610205E0,1.173634000E0
5.204292745E0,4.222354293E-2,-4.892148972E-1,-1.398379803E0,1.482086406E0
5.212285636E0,1.112246513E-1,-5.602359772E-1,-1.545979261E0,1.648116243E0
5.220281886E0,1.060947776E-1,-5.841989517E-1,-1.369066477E0,1.492275958E0
5.228280011E0,1.338612735E-1,-6.071929932E-1,-1.112989902E0,1.274891640E0
5.236274777E0,1.441539824E-1,-6.660833359E-1,-1.029396534E0,1.234546316E0
5.244264464E0,1.086328924E-1,-6.584997177E-1,-1.068930864E0,1.260173074E0
5.252256339E0,6.113052368E-2,-6.437873840E-1,-1.337874413E0,1.485970081E0
5.260250636E0,1.839360595E-2,-5.572719574E-1,-1.702024221E0,1.791026747E0
5.268245831E0,-4.844699800E-2,-4.100017548E-1,-1.885751486E0,1.930416333E0
5.276239542E0,-1.461607218E-1,-1.631803513E-1,-1.883142114E0,1.895841503E0
5.284233019E0,-1.648045778E-1,6.096744537E-2,-1.914212227E0,1.922260656E0
5.292228722E0,-1.360140741E-1,1.757555008E-1,-2.085319281E0,2.097128114E0
5.300224503E0,-1.123157293E-1,3.125543594E-1,-2.330844402E0,2.354387538E0
5.308219855E0,-7.285177708E-5,4.596099854E-1,-2.344801664E0,2.389421727E0
5.316214620E0,8.258046210E-2,4.971570969E-1,-2.394954681E0,2.447405287E0
5.324209230E0,8.549962938E-2,5.567407608E-1,-2.384874582E0,2.450489183E0
5.332204386E0,9.904028475E-2,5.452461243E-1,-2.348624468E0,2.413118150E0
5.340197394E0,9.166984260E-2,5.348653793E-1,-2.234540224E0,2.299490019E0
5.348186925E0,-5.927942693E-2,6.027326584E-1,-2.195887089E0,2.277876383E0
5.356178214E0,-1.987697333E-1,6.841449738E-1,-2.236770153E0,2.347488971E0
5.364170519E0,-2.792405784E-1,7.309989929E-1,-2.258440495E0,2.390164910E0
5.372161769E0,-2.071580589E-1,7.671718597E-1,-2.332762957E0,2.464396505E0
5.380152824E0,-1.367016137E-1,8.144760132E-1,-2.343707085E0,2.484959035E0
5.388146535E0,-8.148790896E-2,8.109579086E-1,-2.448682308E0,2.580763076E0
5.396143253E0,-1.076070368E-1,7.584476471E-1,-2.581161261E0,2.692436733E0
5.404138956E0,-1.866132170E-1,6.594486237E-1,-2.557622910E0,2.647854212E0
5.412131730E0,-2.545146644E-1,5.091037750E-1,-2.423557758E0,2.489497254E0
5.420124933E0,-2.561464012E-1,3.357086182E-1,-2.373537779E0,2.410807508E0
5.428118488E0,-2.465565205E-1,2.035226822E-1,-2.408254862E0,2.429383271E0
5.436111417E0,-2.104924172E-1,1.123409271E-1,-2.443066120E0,2.454689310E0
5.444105753E0,-1.790611148E-1,1.173658371E-1,-2.370958090E0,2.380604941E0
5.452098292E0,-1.494389474E-1,1.875247955E-1,-2.264203310E0,2.276864989E0
5.460094777E0,-1.120013446E-1,3.108272552E-1,-2.240161180E0,2.264393958E0
5.468087042E0,-7.853995264E-2,4.609956741E-1,-2.158061504E0,2.208147412E0
5.476076105E0,-1.437637210E-2,6.060495377E-1,-1.950464368E0,2.042501890E0
5.484068527E0,3.784275055E-2,7.580757141E-1,-1.744104743E0,1.902107309E0
5.492059855E0,8.440256119E-2,8.930292130E-1,-1.700029373E0,1.922166704E0
5.500051730E0,8.513319492E-2,9.604005814E-1,-1.729712844E0,1.980283682E0
5.508043331E0,6.163182855E-2,1.055963516E0,-1.626334190E0,1.940056785E0
5.516037003E0,5.136471987E-2,1.098251343E0,-1.448113561E0,1.818193398E0
5.524030285E0,7.063356042E-2,1.072484016E0,-1.420408726E0,1.781227670E0
5.532021964E0,1.183523834E-1,9.801893234E-1,-1.535401225E0,1.825441130E0
5.540017316E0,1.463777423E-1,8.262338638E-1,-1.674033999E0,1.872559391E0
5.548010910E0,9.646260738E-2,6.416473389E-1,-1.692428350E0,1.812547948E0
5.556000675E0,4.916685820E-2,4.287405014E-1,-1.697459221E0,1.751457566E0
5.563993956E0,-1.469370723E-2,2.400808334E-1,-1.673871160E0,1.691064567E0
5.571987980E0,-4.954698682E-2,8.754634857E-2,-1.620936632E0,1.624055058E0
5.579981378E0,-8.726531267E-2,-5.770587921E-2,-1.640491724E0,1.643824291E0
5.587979074E0,-9.595862031E-2,-1.142759323E-1,-1.677607298E0,1.684230771E0
5.595973917E0,-9.310629964E-2,-1.084108353E-1,-1.541258812E0,1.547869638E0
5.603972355E0,-8.082163334E-2,1.739883423E-2,-1.368374467E0,1.370869628E0
5.611968839E0,-2.962622046E-2,1.577663422E-1,-1.355095625E0,1.364570293E0
5.619963566E0,2.449196577E-2,3.605699539E-1,-1.348122954E0,1.395724202E0
5.627959152E0,5.649328232E-4,5.038557053E-1,-1.216997147E0,1.317176126E0
5.635956027E0,-3.379371762E-2,6.191225052E-1,-1.107548952E0,1.269298772E0
5.643951261E0,-2.030819654E-2,6.994628906E-1,-1.168442011E0,1.361953557E0
5.651947745E0,3.789594769E-2,7.137537003E-1,-1.234381080E0,1.426386027E0
5.659946417E0,8.109086752E-2,6.965503693E-1,-1.224155784E0,1.410785430E0
5.667944933E0,1.339899004E-1,5.841913223E-1,-1.136255145E0,1.284643355E0
5.675941183E0,1.295937300E-1,4.365816116E-1,-1.191004634E0,1.275103947E0
5.683939777E0,1.114726961E-1,3.326101303E-1,-1.198240519E0,1.248533540E0
5.691937785E0,1.027133465E-1,2.412576675E-1,-1.004969120E0,1.038613608E0
5.699936027E0,6.752198935E-2,2.319631577E-1,-7.450250387E-1,7.832167222E-1
5.707932433E0,3.408280015E-2,2.351999283E-1,-6.424698234E-1,6.850168739E-1
5.715933253E0,4.313924909E-2,2.724428177E-1,-6.320544481E-1,6.896222945E-1
5.723929269E0,3.932610154E-2,3.366880417E-1,-7.577223778E-1,8.300895021E-1
5.731923488E0,2.258482575E-2,3.946685791E-1,-8.434965611E-1,9.315362635E-1
5.739918370E0,1.323714852E-2,4.467382431E-1,-7.931187153E-1,9.103777109E-1
5.747915167E0,3.562018275E-2,4.715147018E-1,-7.458363771E-1,8.831006811E-1
5.755910480E0,6.628704071E-2,4.424934387E-1,-7.769366503E-1,8.965628665E-1
5.763907785E0,1.021078229E-1,3.569784164E-1,-6.951686144E-1,7.881110326E-1
5.771904230E0,1.142339408E-1,2.604112625E-1,-6.604672670E-1,7.190830479E-1
5.779903058E0,1.217085719E-1,1.693725586E-1,-6.957519054E-1,7.263406598E-1
5.787900011E0,1.430240273E-1,7.676601410E-2,-5.545924902E-1,5.778596054E-1
5.795896417E0,1.684291959E-1,4.012680054E-2,-3.999768496E-1,4.358440482E-1
5.803892863E0,1.481393576E-1,-4.167556763E-4,-4.449090958E-1,4.689238173E-1
5.811890206E0,9.870624542E-2,-3.293037415E-2,-5.861409903E-1,5.953054618E-1
5.819888800E0,3.485044837E-2,-7.596778870E-2,-6.959124804E-1,7.009135745E-1
5.827886417E0,-2.561739087E-2,-1.564273834E-1,-6.694382429E-1,6.879486449E-1
5.835883370E0,-4.462525249E-2,-2.539520264E-1,-4.558374882E-1,5.237087554E-1
5.843881964E0,-5.388438702E-2,-3.471956253E-1,-4.297363758E-1,5.550870941E-1
5.851876027E0,-6.687310338E-2,-4.579734802E-1,-5.037605762E-1,6.840953433E-1
5.859870245E0,-1.221381128E-1,-5.957412720E-1,-5.366880894E-1,8.110853759E-1
5.867866144E0,-1.546915472E-1,-7.483091354E-1,-4.595148563E-1,8.916557296E-1
5.875862824E0,-1.696023941E-1,-8.817663193E-1,-1.078360081E-1,9.043812352E-1
5.883858214E0,-1.105198562E-1,-9.675512314E-1,1.316850185E-1,9.827059418E-1
5.891852745E0,-2.552628517E-2,-1.013360023E0,8.624005318E-2,1.017343342E0
5.899850558E0,6.211987138E-2,-1.000097275E0,3.379392624E-1,1.057476422E0
5.907846027E0,9.274387360E-2,-9.013528824E-1,5.994622707E-1,1.086459138E0
5.915843214E0,1.049392521E-1,-8.182086945E-1,4.773690701E-1,9.530786659E-1
5.923839035E0,-4.198640585E-3,-7.196865082E-1,1.014118195E-1,7.268085413E-1
5.931834620E0,-1.049469709E-1,-6.459007263E-1,3.987646103E-2,6.555850419E-1
5.939831339E0,-1.219124198E-1,-6.107158661E-1,1.146745682E-1,6.332351568E-1
5.947829113E0,-3.662636876E-2,-7.105569839E-1,-1.032216549E-1,7.189488357E-1
5.955826886E0,8.453810215E-2,-8.188657761E-1,-4.080820084E-2,8.242288270E-1
5.963824855E0,1.953449547E-1,-8.972263336E-1,1.964304447E-1,9.390205880E-1
5.971819113E0,3.028682470E-1,-1.003608227E0,3.934383392E-3,1.048319668E0
5.979816769E0,3.006435633E-1,-1.094881535E0,-1.756539345E-1,1.148915328E0
5.987816027E0,2.497535944E-1,-1.107884884E0,2.014665604E-1,1.153418636E0
5.995810714E0,1.839894652E-1,-1.162263393E0,4.507765770E-1,1.260122153E0
6.003808605E0,1.124696732E-1,-1.218355656E0,3.015527725E-1,1.260148406E0
6.011806769E0,4.187577963E-2,-1.252396107E0,1.012883186E-1,1.257182927E0
6.019806222E0,-1.772993803E-2,-1.228361607E0,-9.050226212E-2,1.231818674E0
6.027802160E0,-4.173806310E-2,-1.145555019E0,2.884769440E-2,1.146678053E0
6.035797824E0,-6.146439910E-2,-1.066284657E0,2.218723297E-3,1.068057004E0
6.043796652E0,-4.562953115E-2,-9.982538223E-1,-3.179030418E-1,1.048644407E0
6.051791300E0,-2.974930406E-2,-8.357081413E-1,1.762285233E-1,8.546049444E-1
6.059784855E0,-3.776779771E-2,-6.120176315E-1,8.523240089E-1,1.049975335E0
6.067778878E0,-1.290771961E-1,-3.911933899E-1,5.592346191E-1,6.945765257E-1
6.075777745E0,-2.119836509E-1,-2.236175537E-1,-3.992080688E-3,3.081522599E-1
6.083774269E0,-2.463828474E-1,-9.094238281E-2,-8.096027374E-2,2.748264733E-1
6.091770089E0,-2.244445980E-1,-1.427478790E-1,-3.080754280E-1,4.070169577E-1
6.099763605E0,-2.517048717E-1,-4.197502136E-1,-8.599209785E-1,9.894491769E-1
6.107758605E0,-2.417876273E-1,-8.170218468E-1,-8.054990768E-1,1.172524933E0
6.115751613E0,-1.316825747E-1,-1.213728428E0,-2.560400963E-1,1.247410729E0
6.123745870E0,-1.943111420E-3,-1.543684959E0,-3.494296074E-1,1.582740686E0
6.131741535E0,1.045659184E-2,-1.750792980E0,-2.903618813E-1,1.774738128E0
6.139738449E0,9.462893009E-3,-1.688675880E0,7.322320938E-1,1.840619356E0
6.147738214E0,2.395895123E-2,-1.489545822E0,1.263517380E0,1.953406501E0
6.155737355E0,-3.440973163E-2,-1.231422424E0,1.137552738E0,1.676786047E0
6.163736144E0,-7.236754894E-2,-1.064342976E0,4.705080986E-1,1.165950643E0
6.171735011E0,-1.049751639E-1,-1.052418232E0,-1.331739426E-1,1.065992129E0
6.179735245E0,-1.320273578E-1,-1.300429821E0,-4.537353516E-1,1.383627375E0
6.187736027E0,-1.634266376E-1,-1.776148796E0,-9.973592758E-1,2.043560211E0
6.195734660E0,-1.602313519E-1,-2.261447906E0,-1.732738018E0,2.853454356E0
6.203733136E0,-1.629102826E-1,-2.809178352E0,-1.316446781E0,3.106614701E0
6.211733136E0,-4.151657224E-2,-3.144210339E0,1.020468235E0,3.305924636E0
6.219732394E0,8.360248804E-2,-3.166579008E0,2.051520824E0,3.773983265E0
6.227730792E0,1.089225113E-1,-2.785256386E0,1.503197193E0,3.166878439E0
6.235731183E0,5.226731300E-4,-1.986901283E0,1.487649441E0,2.482111569E0
6.243725519E0,-6.941068172E-2,-1.133313179E0,1.639061451E0,1.993925536E0
6.251721535E0,-8.858513832E-2,-4.507818222E-1,1.432688236E0,1.504542176E0
6.259717277E0,-5.529478192E-2,-3.335409164E-1,1.203328609E0,1.249922717E0
6.267716847E0,-8.388108015E-2,-7.786021233E-1,6.391520500E-1,1.010827703E0
6.275716183E0,-2.398225069E-1,-1.723641396E0,-2.187509537E-1,1.753940271E0
6.283717120E0,-3.090407848E-1,-2.729818344E0,-4.576582909E-1,2.785114990E0
6.291715402E0,-1.560360193E-1,-3.509849787E0,-2.666339874E-1,3.523419709E0
6.299712042E0,4.895409942E-2,-4.208131313E0,7.273373604E-1,4.270806164E0
6.307705870E0,1.935012043E-1,-4.329051018E0,2.678881168E0,5.094558837E0
6.315700089E0,2.492560446E-1,-3.689831972E0,3.994501591E0,5.443623014E0
6.323694503E0,5.911573768E-2,-2.281219959E0,2.978462696E0,3.752159272E0
6.331690988E0,-1.882778704E-1,-7.818460464E-1,1.615139961E0,1.804275171E0
6.339686886E0,-3.465782106E-1,6.993021965E-1,6.718873978E-1,1.029841101E0
6.347682003E0,-3.388282359E-1,1.382575989E0,4.236412048E-2,1.424119257E0
6.355676652E0,-2.576339841E-1,9.048681259E-1,-5.703282356E-1,1.100198115E0
6.363674738E0,-2.417281419E-1,-6.416187286E-1,-4.452042580E-1,8.175046904E-1
6.371669230E0,-3.278911710E-1,-2.244512081E0,1.216385841E0,2.573896194E0
6.379665792E0,-3.467826545E-1,-3.377464771E0,2.105267525E0,3.994956551E0
6.387664542E0,-3.723998964E-1,-4.213148594E0,2.527590752E0,4.927272853E0
6.395659269E0,-4.789151251E-1,-4.441698551E0,2.798676491E0,5.271682446E0
6.403656964E0,-6.885828376E-1,-3.925853491E0,2.619580269E0,4.769556870E0
6.411655128E0,-9.344899654E-1,-2.621862888E0,2.072031021E0,3.469978250E0
6.419654660E0,-1.057970047E0,-1.088077068E0,1.056560516E0,1.849197786E0
6.427651300E0,-1.085487843E0,-1.604065895E-1,2.601671219E-1,1.127697238E0
6.435647824E0,-9.727132916E-1,-1.336617470E-1,3.006887436E-1,1.026864320E0
6.443649113E0,-6.703504324E-1,-1.054446936E0,3.147525787E-1,1.288525214E0
6.451653019E0,-5.729404092E-1,-2.024027824E0,8.516874313E-1,2.269431829E0
6.459655558E0,-5.258409977E-1,-2.989459038E0,1.873081207E0,3.566764262E0
6.467654855E0,-5.373290181E-1,-3.532124519E0,2.407839775E0,4.308400919E0
6.475656574E0,-6.185399294E-1,-3.505787134E0,2.434672356E0,4.312860368E0
6.483656847E0,-6.792154908E-1,-2.644672394E0,2.257113457E0,3.542624297E0
6.491658410E0,-7.640815377E-1,-1.184191227E0,1.386150360E0,1.976750434E0
6.499657042E0,-8.380343914E-1,6.958556175E-2,2.828931808E-1,8.872273346E-1
6.507655206E0,-7.698200345E-1,7.643353939E-1,-1.350126266E-1,1.093187948E0
6.515653449E0,-5.236585736E-1,2.708446980E-1,7.172355652E-1,9.284406325E-1
6.523653800E0,-3.527249694E-1,-7.119815350E-1,9.447898865E-1,1.234487967E0
6.531655363E0,-3.437296748E-1,-1.895376563E0,7.878236771E-1,2.081169996E0
6.539652980E0,-3.759575784E-1,-2.767311573E0,2.019896507E0,3.446641749E0
6.547651535E0,-4.423159957E-1,-3.170195103E0,2.827814102E0,4.271102086E0
6.555650597E0,-5.447533131E-1,-2.970539093E0,2.770840645E0,4.098587141E0
6.563649581E0,-6.234865189E-1,-1.940614462E0,2.116694450E0,2.938556674E0
6.571651769E0,-6.272636652E-1,-7.327656746E-1,9.566431046E-1,1.358518041E0
6.579651769E0,-6.292180419E-1,3.179440498E-1,1.072053909E-1,7.130895869E-1
6.587647824E0,-6.205903292E-1,5.409002304E-1,1.943664551E-1,8.458627163E-1
6.595646027E0,-6.892521381E-1,-1.361019611E-1,6.396741867E-1,9.501448936E-1
6.603645363E0,-7.251511812E-1,-1.248273730E0,6.209497452E-1,1.571499325E0
6.611645285E0,-7.383974791E-1,-2.085256577E0,1.369665146E0,2.601827903E0
6.619645636E0,-7.386835814E-1,-2.703063011E0,2.158777237E0,3.537304374E0
6.627645870E0,-7.233063579E-1,-2.794736385E0,2.263835907E0,3.668606897E0
6.635643370E0,-7.119191885E-1,-2.295048475E0,1.919144630E0,3.075254875E0
6.643641027E0,-6.587180495E-1,-1.141938329E0,1.341301918E0,1.880697597E0
6.651639113E0,-5.859979987E-1,2.215604782E-1,5.081663132E-1,8.066695122E-1
6.659638097E0,-6.098343134E-1,1.268271923E0,-4.640188217E-1,1.481797904E0
6.667636574E0,-6.243177056E-1,1.813510656E0,-1.540391922E0,2.459959506E0
6.675632589E0,-7.264826894E-1,1.207454681E0,-7.009572983E-1,1.573869448E0
6.683629699E0,-7.385215759E-1,1.169385910E-1,6.488475800E-1,9.899959264E-1
6.691627902E0,-7.427172065E-1,-1.157372475E0,9.475402832E-1,1.670021701E0
6.699632238E0,-7.021012306E-1,-2.113504648E0,1.707053185E0,2.806043230E0
6.707634074E0,-6.129490137E-1,-2.579116821E0,2.329710960E0,3.529178832E0
6.715632081E0,-4.018594027E-1,-2.546988249E0,2.349391937E0,3.488306551E0
6.723630870E0,-1.770462692E-1,-1.783405900E0,1.854191780E0,2.578741775E0
6.731631183E0,-1.221607625E-2,-7.089866400E-1,1.132630348E0,1.336286943E0
6.739631886E0,1.293519437E-1,4.454720020E-1,-1.564245224E-1,4.895363737E-1
6.747632355E0,1.904460639E-1,9.639154673E-1,-7.376441956E-1,1.228625936E0
6.755631574E0,1.976962984E-1,6.100060940E-1,-1.973361969E-1,6.709193958E-1
6.763628995E0,2.589110136E-1,-3.947502375E-1,6.128511429E-1,7.735949756E-1
6.771625245E0,3.217613101E-1,-1.471169710E0,6.096763611E-1,1.624677175E0
6.779623097E0,2.632754147E-1,-2.148762941E0,1.019480705E0,2.392872130E0
6.787620285E0,2.403735071E-1,-2.514814854E0,1.765410423E0,3.082003753E0
6.795618683E0,3.729566336E-1,-2.330066681E0,1.911632538E0,3.036881023E0
6.803617550E0,5.328680873E-1,-1.659263134E0,1.431725502E0,2.255424674E0
6.811617394E0,6.385333538E-1,-5.269477963E-1,5.597009659E-1,9.993317743E-1
6.819615011E0,5.014072061E-1,5.260809660E-1,-1.305437088E-1,7.383847432E-1
6.827616261E0,3.821200430E-1,1.153672814E0,-1.845951080E-1,1.229248569E0
6.835615949E0,4.938342273E-1,1.355011940E0,-5.599040985E-1,1.547068906E0
6.843614542E0,6.972154379E-1,8.078224659E-1,-5.502252579E-1,1.200597492E0
6.851614855E0,7.598080635E-1,-1.200597286E-1,-6.917381287E-2,7.723390759E-1
6.859611574E0,7.325278521E-1,-1.188645720E0,4.432411194E-1,1.464902179E0
6.867612472E0,7.165828943E-1,-1.897593975E0,7.121925354E-1,2.149784209E0
6.875612589E0,7.929898500E-1,-2.039074898E0,5.823163986E-1,2.264012308E0
6.883611027E0,9.955360889E-1,-1.521377325E0,2.878437042E-1,1.840797400E0
6.891609972E0,1.204219103E0,-5.984731913E-1,-3.917264938E-1,1.400629664E0
6.899606808E0,1.337091446E0,5.165833831E-1,-1.131336212E0,1.826086951E0
6.907600050E0,1.472206116E0,1.352017879E0,-1.827624798E0,2.708423083E0
6.915596652E0,1.552326083E0,1.643481255E0,-2.207960129E0,3.160037157E0
6.923589425E0,1.507843494E0,1.293088794E0,-1.802307129E0,2.682159879E0
6.931584347E0,1.391620874E0,4.244688153E-1,-1.313262939E0,1.959959689E0
6.939583175E0,1.345885754E0,-5.001114011E-1,-7.235116959E-1,1.607790114E0
6.947581769E0,1.447091818E0,-1.531283617E0,4.055604935E-1,2.145549710E0
6.955581535E0,1.610973835E0,-2.285433292E0,1.303348541E0,3.084989376E0
6.963579269E0,1.803365946E0,-2.613442659E0,1.835621834E0,3.667658488E0
6.971578410E0,1.985403538E0,-2.551903725E0,2.466378212E0,4.066578576E0
6.979577667E0,2.074683905E0,-2.037116051E0,2.937048912E0,4.132845439E0
6.987572785E0,2.040802717E0,-1.315536976E0,2.703978539E0,3.634145457E0
6.995569777E0,1.855351448E0,-4.407730997E-1,1.723940849E0,2.570716237E0
7.003568019E0,1.619539142E0,1.754106581E-1,1.054992676E0,1.940795063E0
7.011563800E0,1.427432179E0,3.055840135E-1,5.656394958E-1,1.565532579E0
7.019561300E0,1.157031298E0,-6.283107400E-2,1.673536301E-1,1.170758901E0
7.027556535E0,1.062537074E0,-8.036252260E-1,-1.422014236E-1,1.339783483E0
7.035554972E0,1.012789965E0,-1.542789102E0,6.806850433E-2,1.846774227E0
7.043556886E0,9.239243865E-1,-2.199916124E0,3.839445114E-1,2.416750011E0
7.051557902E0,7.955888510E-1,-2.519576788E0,7.193403244E-1,2.738371653E0
7.059559581E0,7.352881432E-1,-2.538593292E0,8.559503555E-1,2.778084874E0
7.067559699E0,7.260134816E-1,-2.289054155E0,9.372348785E-1,2.577842842E0
7.075554386E0,7.178449631E-1,-1.828225613E0,7.766790390E-1,2.112093893E0
7.083554113E0,7.486564517E-1,-1.400817752E0,4.319133759E-1,1.646003044E0
7.091551808E0,6.783161759E-1,-1.045154452E0,4.415473938E-1,1.321901950E0
7.099550011E0,5.746200085E-1,-9.353241920E-1,6.712942123E-1,1.286722743E0
7.107547824E0,4.656488895E-1,-1.029781103E0,4.987049103E-1,1.235307491E0
7.115544855E0,3.592937589E-1,-1.333931208E0,6.325702667E-1,1.519410943E0
7.123542824E0,1.849996448E-1,-1.742309093E0,6.491899490E-1,1.868505669E0
7.131540597E0,-3.162628412E-2,-2.067130566E0,6.136245728E-1,2.156516662E0
7.139538214E0,-2.752281129E-1,-2.393610954E0,6.762838364E-1,2.502495503E0
7.147537277E0,-4.709106684E-1,-2.557813883E0,6.910533905E-1,2.691045058E0
7.155539347E0,-5.814387798E-1,-2.523250580E0,5.263214111E-1,2.642324501E0
7.163540910E0,-5.724669695E-1,-2.237085581E0,6.955814362E-2,2.310218315E0
7.171541652E0,-5.960054994E-1,-1.855033875E0,7.486152649E-2,1.949866016E0
7.179544386E0,-6.654397845E-1,-1.514552236E0,5.109958649E-1,1.731414264E0
7.187546066E0,-7.740911245E-1,-1.389773965E0,4.250688553E-1,1.646624509E0
7.195546574E0,-9.054780006E-1,-1.404422045E0,8.440389633E-1,1.872082653E0
7.203544503E0,-1.089646935E0,-1.423322558E0,1.097594261E0,2.101877901E0
7.211548488E0,-1.259613991E0,-1.364359856E0,7.212944031E-1,1.992077016E0
7.219549777E0,-1.375073910E0,-1.238111615E0,1.605243683E-1,1.857287458E0
7.227551808E0,-1.376880646E0,-1.098266721E0,-4.353237152E-2,1.761784655E0
7.235555988E0,-1.279745460E0,-1.149254322E0,-1.925163269E-1,1.730779152E0
7.243558488E0,-1.141700745E0,-1.502879262E0,5.676679611E-1,1.970881422E0
7.251561535E0,-8.233712912E-1,-2.259484529E0,1.835777283E0,3.025440274E0
7.259565206E0,-5.823455453E-1,-3.165109873E0,2.574979782E0,4.121597714E0
7.267567433E0,-4.381158352E-1,-4.100018024E0,3.790491104E0,5.600885296E0
7.275569074E0,-3.638998270E-1,-5.010948181E0,4.673578262E0,6.861804320E0
7.283569035E0,-3.617888689E-1,-5.280802250E0,4.393913269E0,6.879261400E0
7.291566730E0,-3.958416581E-1,-4.430235863E0,3.076432228E0,5.408152704E0
7.299567003E0,-6.235738993E-1,-2.969939709E0,1.973304749E0,3.619850537E0
7.307569464E0,-6.316137314E-1,-1.951554060E0,3.023689270E0,3.653791997E0
7.315570441E0,-4.262700677E-1,-1.561139584E0,3.998539925E0,4.313604583E0
7.323571652E0,-2.200893760E-1,-1.555313110E0,4.510276794E0,4.775985235E0
7.331568995E0,-6.391686201E-2,-1.575332761E0,4.508902550E0,4.776605581E0
7.339568839E0,-1.395282149E-1,-1.325620890E0,4.648186684E0,4.835532888E0
7.347565831E0,-3.444245160E-1,-7.908498049E-1,3.891351700E0,3.985811048E0
7.355563097E0,-5.437171459E-1,-2.522227168E-1,2.039573669E0,2.125818757E0
7.363562863E0,-5.914931297E-1,4.974222183E-2,7.875614166E-1,9.862004847E-1
7.371562120E0,-3.305736780E-1,1.482440233E-1,2.595233917E-1,4.456541685E-1
7.379563370E0,1.342090368E-1,-2.797508240E-2,2.186670303E-1,2.580890175E-1
7.387562511E0,5.205664039E-1,-2.833350897E-1,6.917572021E-1,9.109314906E-1
7.395559347E0,9.388751984E-1,-3.594920635E-1,9.704799652E-1,1.397337663E0
7.403554855E0,1.266234279E0,-1.543968916E-1,7.320337296E-1,1.470734860E0
7.411550870E0,1.334493399E0,2.128298283E-1,1.074596405E0,1.726536012E0
7.419548136E0,1.143937111E0,7.692681551E-1,1.534737587E0,2.062955421E0
7.427543995E0,7.576702833E-1,1.295401812E0,1.355457306E0,2.022225165E0
7.435544074E0,3.026370406E-1,1.572198153E0,1.340719223E0,2.088282606E0
7.443540089E0,-1.771168113E-1,1.440562725E0,9.543781281E-1,1.737074823E0
7.451539191E0,-5.040053129E-1,5.862979889E-1,1.052885056E0,1.306267058E0
7.459540245E0,-4.176784754E-1,-5.612175465E-1,1.566429138E0,1.715552590E0
7.467538097E0,-1.393684745E-1,-1.895965099E0,1.995151520E0,2.755855006E0
7.475537160E0,1.018725038E-1,-3.153394699E0,2.146756172E0,3.816128693E0
7.483539542E0,2.600136995E-1,-4.098152637E0,2.422968864E0,4.767938788E0
7.491540245E0,4.508970976E-1,-4.813582897E0,2.292759895E0,5.350760361E0
7.499542355E0,4.693182111E-1,-5.043069839E0,1.679245949E0,5.335979755E0
7.507542277E0,3.219739199E-1,-4.796257019E0,9.939002991E-1,4.908725537E0
7.515541886E0,9.989279509E-2,-4.049152851E0,1.607780457E-1,4.053574591E0
7.523539777E0,-3.069129586E-1,-3.300976515E0,-7.806873322E-2,3.316132724E0
7.531538058E0,-7.786547542E-1,-2.481108665E0,-1.918172836E-1,2.607488697E0
7.539537511E0,-1.006262064E0,-1.753818989E0,-2.439928055E-1,2.036658262E0
7.547533917E0,-7.508813739E-1,-1.363660097E0,4.445075989E-3,1.556731016E0
7.555530128E0,-2.673879266E-1,-1.228405237E0,7.250785828E-2,1.259258957E0
7.563526456E0,1.543587148E-1,-1.272006035E0,-4.331874847E-2,1.282069608E0
7.571526222E0,2.376688421E-1,-1.177994728E0,-3.606119156E-1,1.254670878E0
7.579525519E0,-1.505362988E-2,-8.539636135E-1,-6.460027695E-1,1.070887503E0
7.587522081E0,-4.489330947E-1,-4.052536488E-1,-6.967868805E-1,9.226502047E-1
7.595514308E0,-6.744180918E-1,-2.619266510E-3,-7.162151337E-1,9.837737244E-1
7.603508410E0,-7.117705345E-1,4.387655258E-1,-7.218589783E-1,1.104632457E0
7.611504894E0,-7.272627950E-1,5.344367027E-1,-1.436595917E-1,9.138773662E-1
7.619506222E0,-8.134830594E-1,1.010050774E-1,3.233251572E-1,8.811900311E-1
7.627504230E0,-9.116094708E-1,-6.261048317E-1,9.690284729E-2,1.110148301E0
7.635502199E0,-1.065835953E0,-1.351577759E0,-7.749080658E-2,1.723012925E0
7.643496495E0,-1.227070808E0,-1.914560318E0,5.732173920E-1,2.345169964E0
7.651494035E0,-1.227787137E0,-2.240499258E0,1.298488617E0,2.865897916E0
7.659492355E0,-9.679096341E-1,-1.986357689E0,1.284484863E0,2.555849622E0
7.667491417E0,-7.017529607E-1,-1.421649694E0,7.837438583E-1,1.768558596E0
7.675488683E0,-4.750296175E-1,-7.524085045E-1,3.563880920E-1,9.585322985E-1
7.683485363E0,-3.677647114E-1,-2.078275681E-1,5.569190979E-1,6.990007601E-1
7.691482472E0,-3.653262556E-1,-2.818918228E-2,7.169942856E-1,8.051948265E-1
7.699477433E0,-2.650780678E-1,-1.353664398E-1,3.046283722E-1,4.258977579E-1
7.707472042E0,-2.382084727E-1,-4.654321671E-1,1.550827026E-1,5.453632031E-1
7.715466066E0,-3.609087765E-1,-7.898826599E-1,5.998244286E-1,1.055442612E0
7.723461378E0,-5.748810172E-1,-1.037612915E0,9.284629822E-1,1.506377195E0
7.731460480E0,-7.836316228E-1,-1.100182056E0,5.553641319E-1,1.460448012E0
7.739460128E0,-8.540088534E-1,-9.734721184E-1,-3.963279724E-2,1.295588610E0
7.747455441E0,-8.139127493E-1,-6.732721329E-1,-5.019769669E-1,1.169499980E0
7.755450167E0,-7.049584389E-1,-4.946007729E-1,-4.757566452E-1,9.838397789E-1
7.763448019E0,-5.702701211E-1,-3.922390938E-1,-5.996079445E-1,9.157451637E-1
7.771445089E0,-4.187511802E-1,-4.530839920E-1,-1.093241692E0,1.255314722E0
7.779440167E0,-3.283016682E-1,-6.111750603E-1,-1.301877499E0,1.475195567E0
7.787439816E0,-3.208406866E-1,-8.878679276E-1,-1.103687286E0,1.452368352E0
7.795437980E0,-2.529633939E-1,-1.164138794E0,-5.221781731E-1,1.300722743E0
7.803436808E0,-8.888554573E-2,-1.435528755E0,-3.807158470E-1,1.487813161E0
7.811437120E0,1.008029953E-1,-1.706047058E0,-7.037906647E-1,1.848263809E0
7.819433214E0,2.337658107E-1,-1.909698009E0,-1.126027584E0,2.229244505E0
7.827430363E0,2.364858687E-1,-1.931725025E0,-1.304673672E0,2.343002460E0
7.835426535E0,1.728084981E-1,-1.736890316E0,-1.167258739E0,2.099796112E0
7.843424035E0,1.869020462E-1,-1.463337421E0,-1.171910763E0,1.884055100E0
7.851421261E0,2.669000030E-1,-1.228250980E0,-1.302038670E0,1.809735003E0
7.859419152E0,3.421384692E-1,-9.089765549E-1,-1.359617710E0,1.670885223E0
7.867414074E0,4.403475225E-1,-6.310615540E-1,-1.334561348E0,1.540518944E0
7.875409699E0,4.499139786E-1,-4.847674370E-1,-1.316681385E0,1.473455777E0
7.883406300E0,4.673934877E-1,-4.201803207E-1,-1.401605129E0,1.536068069E0
7.891403097E0,4.289315045E-1,-4.609107971E-1,-1.422552586E0,1.555659621E0
7.899398058E0,2.836236060E-1,-5.211868286E-1,-1.228489876E0,1.364282022E0
7.907395245E0,1.386990100E-1,-6.307601929E-1,-1.170185089E0,1.336573597E0
7.915393097E0,3.387479484E-2,-7.777261734E-1,-1.317233086E0,1.530068137E0
7.923385910E0,-1.129588485E-2,-8.712391853E-1,-1.262649059E0,1.534101679E0
7.931381105E0,-1.807282865E-2,-8.800792694E-1,-1.064292908E0,1.381153699E0
7.939378683E0,5.382467434E-2,-8.407769203E-1,-1.092483044E0,1.379609411E0
7.947374972E0,1.042261049E-1,-8.064298630E-1,-1.303569317E0,1.536387050E0
7.955373410E0,1.219451427E-1,-7.148027420E-1,-1.489355803E0,1.656500614E0
7.963371886E0,8.521612734E-2,-6.369638443E-1,-1.445510149E0,1.581924245E0
7.971367667E0,5.629252642E-2,-6.424369812E-1,-1.327759504E0,1.476089233E0
7.979360285E0,1.346402243E-2,-6.741971970E-1,-1.164251566E0,1.345438534E0
7.987356535E0,-1.051627845E-2,-6.800422668E-1,-8.896341324E-1,1.119828990E0
7.995354152E0,2.691971511E-2,-6.392660141E-1,-7.177963257E-1,9.615702122E-1
8.003349855E0,1.146174371E-1,-5.905570984E-1,-8.993337154E-1,1.081987049E0
8.011344699E0,1.731752753E-1,-5.197763443E-1,-1.088952065E0,1.219005219E0
8.019340949E0,1.814823598E-1,-3.686094284E-1,-1.010745287E0,1.091061315E0
8.027332433E0,1.984522045E-1,-2.324819565E-1,-1.137252808E0,1.177614150E0
8.035328292E0,1.709543765E-1,-1.351442337E-1,-1.358938932E0,1.376300979E0
8.043321964E0,1.808512211E-1,-6.003665924E-2,-1.476784706E0,1.489028083E0
8.051314152E0,2.519749701E-1,-1.389884949E-2,-1.226311445E0,1.252008117E0
8.059309894E0,3.517169058E-1,-6.425666809E-2,-1.207459450E0,1.259282345E0
8.067307785E0,3.926350474E-1,-1.590404510E-1,-1.263167858E0,1.332309717E0
8.075305167E0,3.632043898E-1,-2.648935318E-1,-1.417006731E0,1.486604886E0
8.083301183E0,2.933686078E-1,-3.624887466E-1,-1.511464596E0,1.581767510E0
8.091298449E0,1.356340647E-1,-4.350996017E-1,-1.393305898E0,1.465950063E0
8.099293605E0,-1.280482858E-2,-4.659986496E-1,-1.285155654E0,1.367093179E0
8.107288331E0,-7.457856089E-2,-4.626665115E-1,-1.286712408E0,1.369398074E0
8.115282081E0,-1.201213002E-1,-3.989915848E-1,-1.311016202E0,1.375640539E0
8.123270910E0,-1.108306125E-1,-3.036918640E-1,-1.413069963E0,1.449578868E0
8.131262394E0,-1.315662265E-1,-2.053976059E-1,-1.502111912E0,1.521787779E0
8.139256261E0,-1.571625918E-1,-5.623722076E-2,-1.362542987E0,1.372729433E0
8.147252511E0,-1.724041402E-1,8.642101288E-2,-1.226868987E0,1.241933690E0
8.155247042E0,-1.481178403E-1,1.935539246E-1,-1.273489714E0,1.296602509E0
8.163239191E0,-1.338470429E-1,3.177928925E-1,-1.339229703E0,1.382911259E0
8.171231613E0,-1.624960601E-1,4.448080063E-1,-1.356995821E0,1.437253210E0
8.179224620E0,-1.917243600E-1,5.028753281E-1,-1.415464163E0,1.514325137E0
8.187220050E0,-2.338448465E-1,5.997180939E-1,-1.499887347E0,1.632178685E0
8.195212628E0,-2.775086462E-1,6.589765549E-1,-1.601459384E0,1.753833888E0
8.203206261E0,-2.632419467E-1,7.023086548E-1,-1.713234186E0,1.870215267E0
8.211200206E0,-1.987067461E-1,7.012863159E-1,-1.803051710E0,1.944809075E0
8.219195089E0,-1.283564717E-1,6.638422012E-1,-1.894223332E0,2.011279166E0
8.227192902E0,-1.064927354E-1,6.425170898E-1,-1.982035995E0,2.086297102E0
8.235189464E0,-7.331584394E-2,5.844068527E-1,-2.003525972E0,2.088306229E0
8.243184191E0,-1.257020235E-1,5.416078568E-1,-1.892479420E0,1.972465063E0
8.251176730E0,-1.564352959E-1,4.926786423E-1,-1.771567345E0,1.845441709E0
8.259171574E0,-1.512497067E-1,4.469528198E-1,-1.771251917E0,1.833023909E0
8.267164347E0,-9.817148000E-2,4.210920334E-1,-1.769127131E0,1.821199315E0
8.275159230E0,-2.845861018E-2,4.101409912E-1,-1.850408316E0,1.895530654E0
8.283153019E0,-2.768982947E-2,3.925533295E-1,-1.965224981E0,2.004239025E0
8.291145675E0,-5.601795018E-2,3.730907440E-1,-2.022507191E0,2.057393995E0
8.299139113E0,-6.805193424E-2,3.686456680E-1,-2.057287693E0,2.091163156E0
8.307130910E0,-5.245061219E-2,3.840789795E-1,-2.135244370E0,2.170146596E0
8.315121574E0,-1.144600585E-1,3.762912750E-1,-2.199420691E0,2.234311438E0
8.323112589E0,-2.003581673E-1,3.498601913E-1,-2.174203873E0,2.211268421E0
8.331104230E0,-1.943076551E-1,3.432769775E-1,-1.975272894E0,2.014273456E0
8.339098058E0,-1.344832927E-1,3.253040314E-1,-1.697638154E0,1.733748474E0
8.347091808E0,-3.988412023E-2,2.861871719E-1,-1.490455389E0,1.518206543E0
8.355082277E0,4.457944632E-2,2.568492889E-1,-1.552947402E0,1.574676004E0
8.363073370E0,9.043824673E-2,2.348556519E-1,-1.640622139E0,1.659812416E0
8.371062745E0,1.267148554E-1,2.873191833E-1,-1.584426165E0,1.615244637E0
8.379058644E0,1.511447728E-1,3.664913177E-1,-1.486572504E0,1.538524760E0
8.387055128E0,1.472933590E-1,4.891500473E-1,-1.450381756E0,1.537715949E0
8.395048097E0,1.553371549E-1,6.266241074E-1,-1.426041484E0,1.565369515E0
8.403043410E0,1.801547408E-1,7.526006699E-1,-1.320431709E0,1.530491228E0
8.411037394E0,2.176198363E-1,8.382749557E-1,-1.202284813E0,1.481739541E0
8.419035558E0,2.647883892E-1,8.478078842E-1,-1.155790329E0,1.457649610E0
8.427033136E0,2.881977856E-1,7.907962799E-1,-1.144997001E0,1.421068208E0
8.435028019E0,2.695378065E-1,6.887722015E-1,-1.114782691E0,1.337833406E0
8.443023644E0,2.463811040E-1,5.537633896E-1,-1.067393541E0,1.227471593E0
8.451020245E0,2.285033762E-1,4.336462021E-1,-1.035988450E0,1.146095498E0
8.459013605E0,1.868890226E-1,2.995405197E-1,-9.803894758E-1,1.042024738E0
8.467008214E0,1.599398255E-1,1.754102707E-1,-9.341266751E-1,9.638164535E-1
8.475003566E0,1.382151842E-1,9.950447083E-2,-9.612255692E-1,9.761962773E-1
8.482998058E0,1.050023437E-1,1.916313171E-2,-9.514975548E-1,9.574655683E-1
8.490991456E0,1.111211181E-1,-3.209686279E-2,-8.810752630E-1,8.886347566E-1
8.498986417E0,1.101331711E-1,-6.135272980E-2,-7.957030535E-1,8.056282158E-1
8.506980792E0,1.551115513E-1,-1.022195816E-1,-8.239512444E-1,8.446325173E-1
8.514975675E0,1.787340641E-1,-1.498670578E-1,-9.587113261E-1,9.866779655E-1
8.522967785E0,1.596681476E-1,-1.755256653E-1,-1.027818918E0,1.054853025E0
8.530961495E0,1.408588290E-1,-2.043066025E-1,-9.693429470E-1,1.000603891E0
8.538958214E0,1.336930394E-1,-2.204589844E-1,-9.292764068E-1,9.643809583E-1
8.546952589E0,1.387279034E-1,-2.311153412E-1,-8.888916969E-1,9.288639195E-1
8.554947824E0,1.251392365E-1,-2.099676132E-1,-7.138667703E-1,7.545541682E-1
8.562945089E0,7.425153255E-2,-1.953039169E-1,-5.168617964E-1,5.574971091E-1
8.570939308E0,8.833324909E-2,-1.679334641E-1,-4.053406715E-1,4.475549924E-1
8.578935402E0,1.337690353E-1,-1.014833450E-1,-2.930600643E-1,3.377532020E-1
8.586930988E0,1.585233212E-1,-6.060314178E-2,-1.919287443E-1,2.562011457E-1
8.594923956E0,1.860429645E-1,-2.864360809E-2,-1.894336939E-1,2.670534877E-1
8.602919660E0,1.707881093E-1,-2.017402649E-2,-3.584235907E-1,3.975462740E-1
8.610917902E0,1.250651479E-1,-4.697990417E-2,-4.293607473E-1,4.496654912E-1
8.618913449E0,9.441065788E-2,-7.758998871E-2,-2.554676533E-1,2.831912791E-1
8.626909816E0,8.828312159E-2,-8.066940308E-2,2.182126045E-3,1.196086277E-1
8.634909738E0,1.039535403E-1,-9.456443787E-2,1.025196314E-1,1.739512756E-1
8.642907550E0,1.445107460E-1,-1.219549179E-1,9.730148315E-2,2.126592023E-1
8.650903878E0,1.667541265E-1,-1.697959900E-1,9.590697289E-2,2.565848093E-1
8.658900519E0,1.841415167E-1,-1.898612976E-1,2.602684498E-1,3.710728722E-1
8.666894816E0,1.730167270E-1,-1.987905502E-1,4.848423004E-1,5.518374099E-1
8.674892433E0,1.074937582E-1,-2.135705948E-1,5.171258450E-1,5.697248867E-1
8.682890949E0,3.517770767E-2,-2.391748428E-1,3.391177654E-1,4.164648069E-1
8.690891495E0,-3.193783760E-2,-2.374505997E-1,6.893968582E-2,2.493100340E-1
8.698892238E0,-3.592675924E-2,-3.012151718E-1,-5.762815475E-3,3.034048810E-1
8.706892628E0,3.337651491E-2,-3.512048721E-1,-1.023483276E-2,3.529356964E-1
8.714893527E0,9.904712439E-2,-4.881315231E-1,-4.156064987E-2,4.998099682E-1
8.722892745E0,1.201879382E-1,-5.991954803E-1,4.677200317E-2,6.129176000E-1
8.730890402E0,1.178274751E-1,-6.727075577E-1,2.582337856E-1,7.301393429E-1
8.738890714E0,5.064153671E-2,-7.039957047E-1,4.354898930E-1,8.293527382E-1
8.746889347E0,3.988611698E-2,-7.216634750E-1,6.072237492E-1,9.439860990E-1
8.754886652E0,5.044555664E-2,-7.891569138E-1,6.264770031E-1,1.008854214E0
8.762882199E0,5.081033707E-2,-8.907289505E-1,3.450827599E-1,9.565886602E-1
8.770876808E0,6.022828817E-2,-1.064792633E0,-4.258298874E-2,1.067344419E0
8.778870245E0,3.116112947E-2,-1.255166054E0,-1.496243477E-2,1.255641953E0
8.786864503E0,-4.519289732E-2,-1.456789494E0,2.982475758E-1,1.487692725E0
8.794861027E0,7.523673773E-2,-1.792142868E0,3.382134438E-1,1.825328726E0
8.802860402E0,-2.757369876E-1,-1.702031612E0,3.423464298E-1,1.757880421E0
8.810857745E0,-2.744403481E-1,-1.749407768E0,3.401169777E-1,1.803170708E0
8.818859464E0,-1.853708625E-1,-1.742659092E0,1.543645859E-1,1.759275843E0
8.826859699E0,-1.056079865E-1,-1.683575153E0,1.188402176E-1,1.691065150E0
8.834857042E0,-3.934854269E-2,-1.447144508E0,8.215017319E-1,1.664524146E0
8.842853488E0,2.111374736E-1,-1.291695595E0,1.352475643E0,1.882085786E0
8.850848917E0,3.177068233E-1,-1.196743965E0,1.165736198E0,1.700610075E0
8.858846417E0,2.746236324E-1,-1.208955288E0,4.810976982E-1,1.329829321E0
8.866843644E0,1.840445995E-1,-1.248028755E0,3.161816597E-1,1.300545666E0
8.874842316E0,7.125836611E-2,-1.259813786E0,5.010867119E-1,1.357680530E0
8.882839894E0,1.494681835E-2,-1.300216675E0,4.485359192E-1,1.375489469E0
8.890839464E0,-7.210254669E-2,-1.425190926E0,2.987723351E-1,1.457955027E0
8.898838136E0,-1.730521321E-1,-1.731276035E0,7.931423187E-2,1.741710222E0
8.906837394E0,-1.917217970E-1,-2.018648148E0,-3.049850464E-3,2.027734424E0
8.914835363E0,-1.566483378E-1,-2.195683956E0,2.973551750E-1,2.221257940E0
8.922830128E0,-1.027104855E-1,-2.347106457E0,6.538338661E-1,2.438638327E0
8.930828214E0,-5.822485685E-2,-2.335434437E0,8.384070396E-1,2.482049658E0
8.938827160E0,-2.066183090E-2,-2.151593208E0,9.736847878E-1,2.361745607E0
8.946827706E0,-1.969218254E-2,-1.737443447E0,1.444169044E0,2.259363128E0
8.954827042E0,-5.503940582E-2,-1.198512554E0,1.832724094E0,2.190511193E0
8.962826066E0,-3.950762749E-2,-8.390045166E-1,1.765493393E0,1.955110317E0
8.970824816E0,5.424410105E-2,-7.936882973E-1,1.430313587E0,1.636667496E0
8.978821417E0,1.827324629E-1,-1.133862972E0,1.214768887E0,1.671735577E0
8.986814777E0,1.994578838E-1,-1.577181339E0,8.417096138E-1,1.798821697E0
8.994810988E0,8.731406927E-2,-2.137525082E0,4.330177307E-1,2.182691361E0
9.002806730E0,2.363109589E-2,-2.745938301E0,2.434535027E-1,2.756810692E0
9.010801261E0,5.880355835E-3,-3.191467285E0,6.511545181E-1,3.257222777E0
9.018795363E0,-1.647108793E-2,-3.425113201E0,1.609176159E0,3.784325521E0
9.026789933E0,-2.551147342E-1,-3.086621046E0,2.393239975E0,3.914065736E0
9.034785675E0,-4.815313518E-1,-2.318281174E0,2.314692497E0,3.311208450E0
9.042781222E0,-6.530716419E-1,-1.333048820E0,1.584728718E0,2.171379017E0
9.050777277E0,-6.893938780E-1,-6.224870682E-1,9.083747864E-1,1.299191603E0
9.058773917E0,-5.170541406E-1,-4.229087830E-1,5.511789322E-1,8.660225391E-1
9.066767433E0,-2.812365890E-1,-8.186173439E-1,-2.068214417E-1,8.899457756E-1
9.074761535E0,-2.410244048E-1,-1.689284325E0,-1.138547897E0,2.051357016E0
9.082759035E0,-3.053130507E-1,-2.481097937E0,-4.196381569E-1,2.534789777E0
9.090756183E0,-2.792434990E-1,-3.222617626E0,1.222402573E0,3.457963179E0
9.098751300E0,-1.880567074E-1,-3.617912531E0,2.005651474E0,4.140929152E0
9.106746691E0,-1.408861876E-1,-3.588209867E0,2.165467739E0,4.193369707E0
9.114741183E0,-9.396862984E-2,-2.886116028E0,1.861733913E0,3.435774875E0
9.122735558E0,-1.368907094E-1,-1.896558523E0,1.304509640E0,2.305952883E0
9.130731183E0,-2.017447054E-1,-8.299283981E-1,4.851408005E-1,9.822645614E-1
9.138726456E0,-1.672043800E-1,-4.467496872E-1,1.275234222E-1,4.937659475E-1
9.146722628E0,-3.064882755E-2,-9.283118248E-1,-4.550237656E-1,1.034286625E0
9.154714972E0,9.761095047E-2,-2.025878191E0,-5.636124611E-1,2.105081791E0
9.162710245E0,1.790567636E-1,-3.075732231E0,2.806272507E-1,3.093693866E0
9.170706691E0,2.491459846E-1,-3.776580095E0,1.643227577E0,4.126115341E0
9.178702980E0,8.880871534E-2,-4.124882221E0,2.852644920E0,5.015986779E0
9.186701535E0,-1.965403557E-1,-3.646306038E0,2.821748734E0,4.614806794E0
9.194697081E0,-3.333136141E-1,-2.566333055E0,2.328526497E0,3.481263989E0
9.202692511E0,-2.457632720E-1,-1.081605434E0,1.638359070E0,1.978507100E0
9.210688292E0,-1.599088311E-1,8.114004135E-2,1.394303322E0,1.405786717E0
9.218682863E0,-8.837670088E-2,2.928919792E-1,1.461676598E0,1.493350136E0
9.226677980E0,6.610149145E-2,-5.455353260E-1,1.176954269E0,1.298922458E0
9.234672160E0,8.062160015E-2,-1.929848433E0,1.251993179E0,2.301804018E0
9.242669855E0,-1.102087498E-1,-3.104476929E0,1.885970116E0,3.634116983E0
9.250664777E0,-2.960319519E-1,-4.118986130E0,2.787304878E0,4.982243484E0
9.258658839E0,-2.855566144E-1,-4.600257397E0,3.533978462E0,5.808004345E0
9.266653722E0,-1.656942666E-1,-4.310885429E0,3.661921501E0,5.658697452E0
9.274652511E0,8.209824562E-3,-3.140482903E0,2.810239792E0,4.214279055E0
9.282649933E0,1.568669677E-1,-1.479812384E0,2.247083664E0,2.695150632E0
9.290649620E0,2.783503830E-1,-5.616974831E-2,1.808934212E0,1.831086278E0
9.298647199E0,2.828970551E-1,1.133165836E0,6.831626892E-1,1.353073101E0
9.306647550E0,1.832542717E-1,1.680757761E0,-6.003494263E-1,1.794142752E0
9.314648331E0,1.437506080E-2,1.349203348E0,-1.945181370E0,2.367337508E0
9.322648058E0,-2.470729351E-1,-1.788201332E-1,-7.345352173E-1,7.953387082E-1
9.330647472E0,-2.746958733E-1,-1.817973971E0,1.261279106E0,2.229643955E0
9.338644113E0,-3.600128889E-1,-3.362994671E0,1.222397804E0,3.596331301E0
9.346638370E0,-4.789667130E-1,-4.361097813E0,7.635793686E-1,4.453272583E0
9.354634542E0,-5.193020105E-1,-4.699035645E0,1.178780556E0,4.872384854E0
9.362634074E0,-4.429952800E-1,-4.084691048E0,1.780691147E0,4.477924378E0
9.370632120E0,-2.739738822E-1,-2.339612961E0,1.467196465E0,2.775160529E0
9.378630011E0,-1.767079979E-1,-5.300738811E-1,-3.032693863E-1,6.357486584E-1
9.386626925E0,-2.270922363E-1,1.064302206E0,-1.493102551E0,1.847610699E0
9.394624464E0,-1.024194211E-1,1.444884777E0,-2.492465973E-1,1.469797817E0
9.402623956E0,2.047360539E-1,7.003750801E-1,5.795936584E-1,9.318642141E-1
9.410620245E0,3.855115473E-1,-8.287740946E-1,3.663930893E-1,9.847484698E-1
9.418619269E0,1.220259666E-1,-2.243679762E0,8.180532455E-1,2.391275878E0
9.426615949E0,-2.018837184E-1,-3.081542492E0,1.275253296E0,3.341097445E0
9.434612511E0,-4.426441789E-1,-3.358241796E0,1.534654617E0,3.718721101E0
9.442611730E0,-4.319785237E-1,-2.604851007E0,1.424206734E0,3.000036506E0
9.450611691E0,-3.140296042E-1,-1.331251621E0,6.667585373E-1,1.521647929E0
9.458609308E0,-1.207863688E-1,1.753377914E-2,3.781528473E-1,3.973617448E-1
9.466608175E0,7.563972473E-2,6.413401365E-1,1.181968689E0,1.346881034E0
9.474607277E0,2.427151799E-1,4.429702759E-1,1.500799179E0,1.583518708E0
9.482606222E0,2.952511013E-1,-4.859727621E-1,1.501245499E0,1.605328871E0
9.490605675E0,1.202964187E-1,-1.666941166E0,2.247397423E0,2.800706921E0
9.498607003E0,-6.899738312E-2,-2.469621181E0,2.986240387E0,3.875747808E0
9.506603956E0,-1.934248805E-1,-2.825443506E0,3.060067177E0,4.169479022E0
9.514602785E0,-2.133917660E-1,-2.244327545E0,2.324769020E0,3.238378170E0
9.522601144E0,-1.590152830E-1,-1.207674742E0,1.769898415E0,2.148558712E0
9.530599542E0,-8.161482215E-2,-1.507635117E-1,2.090845108E0,2.097861740E0
9.538597199E0,1.934214234E-1,1.363877058E-1,2.520734787E0,2.531820949E0
9.546595753E0,4.012282789E-1,-4.757587910E-1,2.712714195E0,2.783190411E0
9.554591886E0,3.108913302E-1,-1.828474402E0,3.242467880E0,3.735447766E0
9.562589660E0,2.960738540E-2,-3.026797771E0,3.807218552E0,4.863876483E0
9.570589542E0,-1.835772544E-1,-3.646557808E0,3.878627777E0,5.326803722E0
9.578586105E0,-3.373941183E-1,-3.810116768E0,2.996663094E0,4.859096034E0
9.586584542E0,-2.796136141E-1,-3.110458851E0,2.262580872E0,3.856476402E0
9.594582667E0,-2.641707659E-3,-2.087045908E0,1.581742287E0,2.618716530E0
9.602581417E0,2.034915984E-1,-1.092618704E0,1.302795410E0,1.712454479E0
9.610583722E0,3.731211424E-1,-8.821323514E-1,1.839402199E0,2.073831556E0
9.618585206E0,5.867974758E-1,-1.318347812E0,2.724789619E0,3.083318132E0
9.626586574E0,5.827921629E-1,-2.206501484E0,2.717321396E0,3.548539287E0
9.634584933E0,3.465156257E-1,-2.883766413E0,2.598431587E0,3.897182125E0
9.642579542E0,2.598199248E-2,-3.360458612E0,3.285076141E0,4.699476822E0
9.650573058E0,-1.238541603E-1,-3.402924299E0,3.738398552E0,5.056763527E0
9.658569425E0,-1.188447475E-1,-3.047693253E0,3.501313210E0,4.643463409E0
9.666568956E0,-5.785770714E-2,-2.267202377E0,2.848623276E0,3.641182322E0
9.674568449E0,-8.035130799E-2,-1.597384453E0,2.273176193E0,2.779464594E0
9.682566066E0,-5.660653114E-2,-1.758891344E0,3.095867157E0,3.561080807E0
9.690564152E0,1.404387057E-1,-2.486090899E0,3.971147537E0,4.687257594E0
9.698563644E0,1.374066472E-1,-3.133270264E0,4.071491241E0,5.139387518E0
9.706564855E0,1.560847163E-1,-3.632306576E0,3.696914673E0,5.185093210E0
9.714562238E0,2.047898769E-1,-4.064265728E0,3.357471466E0,5.275680946E0
9.722560363E0,7.032163441E-2,-4.249400139E0,3.515799522E0,5.515722342E0
9.730560870E0,-1.235971972E-1,-4.054406643E0,3.401278496E0,5.293598483E0
9.738560402E0,-1.740453094E-1,-3.378285885E0,2.784238815E0,4.381220500E0
9.746561144E0,-1.617661119E-1,-2.479694843E0,1.970883369E0,3.171661402E0
9.754563292E0,-2.173565030E-1,-1.680005312E0,1.511159897E0,2.270080600E0
9.762562511E0,-2.246408761E-1,-1.008275151E0,9.971075058E-1,1.435724793E0
9.770557667E0,-1.762666404E-1,-1.058228135E0,8.781290054E-1,1.386371979E0
9.778554660E0,4.716274142E-2,-1.771004677E0,1.302088737E0,2.198662541E0
9.786552081E0,3.549503088E-1,-2.821597576E0,1.699944496E0,3.313187875E0
9.794546691E0,3.179732561E-1,-3.672542334E0,2.099726677E0,4.242349149E0
9.802542355E0,1.707512736E-1,-3.975367546E0,2.296566010E0,4.594226655E0
9.810538800E0,2.281857282E-1,-3.538673878E0,2.304421425E0,4.229023486E0
9.818537042E0,3.862402439E-1,-2.525855541E0,1.642494202E0,3.037583734E0
9.826534894E0,4.590365291E-1,-1.609461546E0,1.169649124E0,2.041852119E0
9.834533839E0,4.437802136E-1,-8.528730869E-1,4.849424362E-1,1.076802000E0
9.842528800E0,2.581604123E-1,-6.573584080E-1,2.775344849E-1,7.588097689E-1
9.850526456E0,-9.505560994E-2,-9.989838600E-1,5.210380554E-1,1.130701100E0
9.858524035E0,-4.813999534E-1,-1.792960882E0,1.060312271E0,2.137923467E0
9.866522902E0,-5.845717192E-1,-2.714030743E0,1.534879684E0,3.172308720E0
9.874522745E0,-4.907350838E-1,-3.208788395E0,1.636891365E0,3.635458324E0
9.882524152E0,-2.849008441E-1,-3.174389839E0,1.634781837E0,3.581959101E0
9.890526652E0,-1.968596876E-2,-2.713256598E0,1.396880150E0,3.051790139E0
9.898528644E0,2.617860138E-1,-1.943536043E0,1.164523125E0,2.280784597E0
9.906524894E0,3.011889458E-1,-1.147709846E0,9.319410324E-1,1.508796461E0
9.914520363E0,2.169052660E-1,-5.326559544E-1,4.207830429E-1,7.126209577E-1
9.922515949E0,9.213365614E-2,1.371583939E-1,-4.000320435E-1,4.328125130E-1
9.930510519E0,4.242431372E-2,3.557968140E-2,-7.686057091E-1,7.705974774E-1
9.938506808E0,6.346190721E-2,-2.332015038E-1,-3.761510849E-1,4.471017711E-1
9.946507042E0,1.300428212E-1,-1.092090368E0,2.455863953E-1,1.126891825E0
9.954502394E0,3.300511092E-2,-2.119212866E0,3.398027420E-1,2.146536376E0
9.962499074E0,-2.453238517E-1,-2.897291660E0,6.102476120E-1,2.971007389E0
9.970497316E0,-5.573931336E-1,-3.491647243E0,8.360567093E-1,3.633356355E0
9.978496027E0,-7.437796593E-1,-3.639798641E0,6.423826218E-1,3.770145589E0
9.986493722E0,-6.484465003E-1,-3.309761286E0,3.119983673E-1,3.387085121E0
9.994490597E0,-4.754669964E-1,-2.464113474E0,2.643203735E-2,2.509705706E0
1.000248892E1,-2.766895890E-1,-1.544270754E0,-2.017984390E-1,1.581787565E0
1.001048630E1,-2.005129308E-2,-9.720792770E-1,-5.292234421E-1,1.106985830E0
1.001848595E1,1.566228569E-1,-4.791679382E-1,-7.097735405E-1,8.705809044E-1
1.002648657E1,2.615677714E-1,-2.196865082E-1,-5.178933144E-1,6.203977321E-1
1.003448571E1,2.020229697E-1,-3.578190804E-1,-4.023542404E-1,5.750971304E-1
1.004248384E1,-5.177446455E-2,-9.071860313E-1,-2.233028412E-2,9.089365942E-1
1.005048060E1,-2.739829421E-1,-1.608613491E0,4.626083374E-2,1.632435016E0
1.005847724E1,-4.076327085E-1,-2.163955212E0,2.130289078E-1,2.212294713E0
1.006647564E1,-4.861496389E-1,-2.463066816E0,2.525362968E-1,2.523254683E0
1.007447372E1,-5.252224207E-1,-2.344206333E0,-1.134109497E-1,2.404999785E0
1.008246849E1,-4.193744361E-1,-2.080264091E0,-5.225548744E-1,2.185506167E0
1.009046478E1,-1.819249094E-1,-1.732734203E0,-1.074074745E0,2.046729354E0
1.009846056E1,1.450754330E-2,-1.436382771E0,-1.053502083E0,1.781368174E0
1.010645372E1,1.308786273E-1,-1.297104836E0,-9.701347351E-1,1.625045099E0
1.011444849E1,1.001332030E-1,-1.201668739E0,-9.253673553E-1,1.519979987E0
1.012244368E1,2.450914681E-2,-1.199512482E0,-8.628058434E-1,1.477790518E0
1.013044111E1,-5.943813175E-2,-1.273788452E0,-1.024660110E0,1.635847870E0
1.013843997E1,-2.540051639E-1,-1.363444805E0,-1.101108074E0,1.770858366E0
1.014643525E1,-4.359760284E-1,-1.480365753E0,-9.655647278E-1,1.820404654E0
1.015443591E1,-5.855734348E-1,-1.637814045E0,-9.519591331E-1,1.982815494E0
1.016243509E1,-5.973958373E-1,-1.811201572E0,-1.111011028E0,2.207187900E0
1.017043415E1,-5.429500937E-1,-1.878264427E0,-1.007099628E0,2.199300281E0
1.017843079E1,-5.548593402E-1,-1.745210648E0,-8.681397438E-1,2.026646419E0
1.018642435E1,-5.901023149E-1,-1.469418526E0,-7.205548286E-1,1.739715726E0
1.019442052E1,-5.849897861E-1,-1.179677963E0,-6.846876144E-1,1.484132836E0
1.020241657E1,-5.875902176E-1,-8.347816467E-1,-6.583223343E-1,1.214706120E0
1.021041400E1,-5.784325004E-1,-5.155816078E-1,-6.040320396E-1,9.824781202E-1
1.021841052E1,-6.005291343E-1,-3.248381615E-1,-4.265069962E-1,8.050237823E-1
1.022640923E1,-5.710171461E-1,-1.673755646E-1,-5.488448143E-1,8.095095990E-1
1.023440622E1,-4.442442358E-1,-1.268358231E-1,-8.301715851E-1,9.500658544E-1
1.024240524E1,-3.530557454E-1,-2.367219925E-1,-7.631254196E-1,8.735250810E-1
1.025040321E1,-2.616739571E-1,-4.013152122E-1,-3.071088791E-1,5.690720719E-1
1.025839814E1,-1.990825981E-1,-6.048684120E-1,-5.199098587E-2,6.389074576E-1
1.026639411E1,-2.046856880E-1,-7.329311371E-1,-1.526417732E-1,7.761338760E-1
1.027439146E1,-2.718957663E-1,-8.141202927E-1,-3.937740326E-1,9.443395297E-1
1.028238466E1,-3.617343009E-1,-8.141713142E-1,-3.433794975E-1,9.547963724E-1
1.029037450E1,-4.199599922E-1,-7.312588692E-1,3.134202957E-1,8.996322641E-1
1.029836255E1,-3.957933486E-1,-6.360101700E-1,3.215517998E-1,8.152035764E-1
1.030635442E1,-2.782801986E-1,-6.151390076E-1,-5.336899757E-1,8.606165568E-1
1.031434341E1,-2.353193164E-1,-5.523796082E-1,-5.501544476E-1,8.143514771E-1
1.032232954E1,-1.866872311E-1,-4.846849442E-1,-1.520967484E-1,5.412070197E-1
1.033031896E1,-1.559589207E-1,-4.870758057E-1,-1.496634483E-1,5.328838271E-1
1.033831056E1,-1.521381885E-1,-4.961919785E-1,-4.012343884E-1,6.560042243E-1
1.034629993E1,-2.751258314E-1,-5.390529633E-1,-9.529573917E-1,1.128893312E0
1.035429087E1,-3.457638621E-1,-5.380811691E-1,-1.198663950E0,1.358631391E0
1.036228411E1,-4.079444110E-1,-4.486761093E-1,-6.463518143E-1,8.862841313E-1
1.037027736E1,-3.890256286E-1,-3.932771683E-1,-2.746245861E-1,6.175973883E-1
1.037826736E1,-3.427087069E-1,-3.850402832E-1,-5.880284309E-1,7.819736012E-1
1.038625982E1,-3.263223767E-1,-3.188285828E-1,-1.013595581E0,1.111536756E0
1.039425126E1,-3.108779490E-1,-2.366266251E-1,-1.144850016E0,1.209677154E0
1.040224204E1,-2.538036406E-1,-1.836824417E-1,-1.238767743E0,1.277771908E0
1.041023528E1,-1.479701102E-1,-1.626396179E-1,-1.488634348E0,1.504785374E0
1.041822544E1,-4.785305262E-2,-1.875772476E-1,-1.538778186E0,1.550907297E0
1.042621927E1,5.391103774E-2,-2.559413910E-1,-1.607851148E0,1.628986712E0
1.043420802E1,1.538664699E-1,-3.676977158E-1,-1.516754985E0,1.568254503E0
1.044219833E1,1.880706549E-1,-4.920234680E-1,-1.614330292E0,1.698093035E0
1.045018646E1,1.554648578E-1,-5.740728378E-1,-1.612742782E0,1.718914839E0
1.045817814E1,3.827463835E-2,-5.988769531E-1,-1.651133537E0,1.756804062E0
1.046616825E1,-1.120825112E-1,-6.030836105E-1,-1.827552080E0,1.927749708E0
1.047415681E1,-1.763514280E-1,-6.035385132E-1,-2.050910234E0,2.145132013E0
1.048215103E1,-2.438283414E-1,-5.164728165E-1,-2.012459755E0,2.091934678E0
1.049014564E1,-1.753293872E-1,-3.946533203E-1,-1.709609509E0,1.763308342E0
1.049814009E1,-5.989026278E-2,-2.744264603E-1,-1.741343498E0,1.763852008E0
1.050613446E1,6.560249627E-2,-1.119308472E-1,-2.098775625E0,2.102781807E0
1.051413087E1,1.496399492E-1,1.994132996E-2,-2.287452221E0,2.292428283E0
1.052212986E1,2.002550066E-1,2.053699493E-1,-2.289857388E0,2.307753396E0
1.053012685E1,1.735610664E-1,3.822069168E-1,-2.228397608E0,2.267589352E0
1.053812208E1,1.340026706E-1,5.264720917E-1,-2.286763668E0,2.350407976E0
1.054611946E1,7.146920264E-2,6.405334473E-1,-2.454628468E0,2.537832118E0
1.055411404E1,-1.734232530E-2,7.768459320E-1,-2.437517166E0,2.558374541E0
1.056210880E1,-6.529811025E-2,9.048280716E-1,-2.119265079E0,2.305268349E0
1.057010271E1,-1.482727565E-2,9.790201187E-1,-1.733572483E0,1.990973077E0
1.057809681E1,3.212679178E-3,9.942731857E-1,-1.742631316E0,2.006328336E0
1.058609189E1,-5.198547989E-2,9.790897369E-1,-1.845617533E0,2.089885949E0
1.059408712E1,-1.122625470E-1,1.031601906E0,-1.760347605E0,2.043435602E0
1.060208267E1,-1.426848620E-1,1.125616074E0,-1.740594387E0,2.077748622E0
1.061007478E1,-1.643628776E-1,1.196473122E0,-2.019625664E0,2.353178894E0
1.061806978E1,-2.553556859E-1,1.210649490E0,-2.330472708E0,2.638556756E0
1.062606810E1,-3.485422134E-1,1.208867073E0,-2.282136679E0,2.605952627E0
1.063406165E1,-3.340322077E-1,1.176705360E0,-2.071261644E0,2.405480788E0
1.064205446E1,-1.960470378E-1,1.073164940E0,-1.856731892E0,2.153501973E0
1.065005091E1,-4.320260137E-2,9.052848816E-1,-1.866809487E0,2.075183087E0
1.065804876E1,6.936652958E-2,7.255659103E-1,-1.991204023E0,2.120412948E0
1.066604310E1,1.150238365E-1,5.531549454E-1,-1.961680412E0,2.041421298E0
1.067403509E1,7.543650270E-2,4.527034760E-1,-1.752291441E0,1.811396256E0
1.068202435E1,7.745653391E-3,4.265785217E-1,-1.709739804E0,1.762168956E0
1.069001529E1,-5.624620616E-2,4.436721802E-1,-1.881664872E0,1.934081521E0
1.069800497E1,-7.366335392E-2,5.280761719E-1,-2.052369118E0,2.120497519E0
1.070599712E1,-2.026186883E-2,6.152801514E-1,-2.108914852E0,2.196930145E0
1.071398794E1,4.109905660E-2,6.479015350E-1,-2.111656427E0,2.209198587E0
1.072198333E1,9.719590843E-2,6.331233978E-1,-2.012624741E0,2.112096264E0
1.072998017E1,1.673598886E-1,5.062332153E-1,-1.819922805E0,1.896417785E0
1.073797521E1,2.230031490E-1,3.317470551E-1,-1.629541993E0,1.677853873E0
1.074597052E1,2.527289987E-1,1.862821579E-1,-1.522865057E0,1.554892591E0
1.075396564E1,2.621099651E-1,3.378963470E-2,-1.469611883E0,1.493185340E0
1.076195712E1,2.953105569E-1,-5.866718292E-2,-1.526964426E0,1.556364521E0
1.076995056E1,3.118944764E-1,-9.588718414E-2,-1.534474134E0,1.568784047E0
1.077794177E1,3.139610291E-1,-5.147552490E-2,-1.360898852E0,1.397593268E0
1.078593431E1,3.239401281E-1,5.545043945E-2,-1.145695329E0,1.191901734E0
1.079392739E1,3.575323224E-1,1.579380035E-1,-1.066393256E0,1.135767737E0
1.080192228E1,3.802196980E-1,2.607440948E-1,-1.094212532E0,1.187373390E0
1.080991642E1,4.209332466E-1,2.952976227E-1,-1.040044308E0,1.160205864E0
1.081791040E1,4.474675655E-1,2.729864120E-1,-9.577566981E-1,1.091808910E0
1.082590454E1,4.709045887E-1,1.793327332E-1,-8.457874060E-1,9.845139394E-1
1.083390044E1,4.565029740E-1,5.974197388E-2,-8.186219931E-1,9.392050023E-1
1.084189411E1,4.220669270E-1,-7.388210297E-2,-8.725723028E-1,9.721015789E-1
1.084988896E1,3.894132972E-1,-2.128524780E-1,-9.557788968E-1,1.053784700E0
1.085788282E1,3.334873021E-1,-3.129768372E-1,-8.564605713E-1,9.709237825E-1
1.086587364E1,2.466194034E-1,-3.957548141E-1,-7.109578252E-1,8.502376328E-1
1.087386669E1,1.055021286E-1,-4.205427170E-1,-5.907080173E-1,7.327501878E-1
1.088185736E1,3.167229891E-2,-3.657169342E-1,-5.078437328E-1,6.266237048E-1
1.088984696E1,-2.523970604E-2,-2.978811264E-1,-5.459127426E-1,6.224073672E-1
1.089783997E1,-4.729557037E-2,-2.079200745E-1,-5.969882011E-1,6.339262896E-1
1.090583622E1,-7.731455564E-2,-1.076803207E-1,-4.319068193E-1,4.517920900E-1
1.091382954E1,-6.547993422E-2,5.779266357E-4,-1.922994852E-1,2.031429246E-1
1.092182212E1,-5.922794342E-2,1.021127701E-1,-2.539501190E-1,2.800457642E-1
1.092981610E1,-7.704204321E-2,1.800594330E-1,-4.200102091E-1,4.634279357E-1
1.093780798E1,-9.708076715E-2,2.059507370E-1,-3.663414717E-1,4.313310275E-1
1.094580185E1,-9.592354298E-2,1.754283905E-1,-1.356171370E-1,2.415956418E-1
1.095379579E1,-1.386385262E-1,1.557550430E-1,1.518900394E-1,2.579745306E-1
1.096178966E1,-1.693345308E-1,9.376239777E-2,4.203599691E-1,4.627829666E-1
1.096978267E1,-1.709722281E-1,4.166603088E-3,5.173591375E-1,5.448938801E-1
1.097777544E1,-1.345895231E-1,-5.789852142E-2,5.315818787E-1,5.514035475E-1
1.098577083E1,-1.390275061E-1,-1.498146057E-1,4.939601421E-1,5.345743031E-1
1.099376150E1,-1.296742857E-1,-2.807817459E-1,4.200005531E-1,5.215882225E-1
1.100175513E1,-1.273910105E-1,-4.553079605E-1,3.279705048E-1,5.754115575E-1
1.100974860E1,-1.468972564E-1,-7.116413116E-1,3.187670708E-1,7.934888820E-1
1.101774224E1,-1.520588398E-1,-9.753570557E-1,5.548758507E-1,1.132400321E0
1.102573786E1,-1.611939073E-1,-1.227486610E0,7.744297981E-1,1.460290508E0
1.103373189E1,-1.942110360E-1,-1.474146366E0,9.028491974E-1,1.739529278E0
1.104172337E1,-2.479310930E-1,-1.669850349E0,8.373045921E-1,1.884396189E0
1.104971521E1,-2.877037525E-1,-1.788685799E0,7.582292557E-1,1.963945503E0
1.105770896E1,-2.724165618E-1,-1.851904869E0,7.960400581E-1,2.034070353E0
1.106570134E1,-2.426984310E-1,-1.838107109E0,8.145091534E-1,2.025084056E0
1.107369583E1,-2.079289258E-1,-1.802715778E0,6.300632954E-1,1.920936847E0
1.108169040E1,-2.038014829E-1,-1.659229755E0,5.719728470E-1,1.766842201E0
1.108968333E1,-1.727380455E-1,-1.426465511E0,8.810074329E-1,1.685472155E0
1.109767736E1,-1.489643753E-1,-1.145222664E0,1.052314520E0,1.562399176E0
1.110566911E1,-1.446551085E-1,-8.656473160E-1,7.647166252E-1,1.164071258E0
1.111366263E1,-1.541293561E-1,-6.305770874E-1,6.925613880E-1,9.492231549E-1
1.112165743E1,-1.015259624E-1,-4.124603271E-1,7.182278633E-1,8.344353217E-1
1.112965064E1,-7.718682289E-3,-3.115091324E-1,6.255910397E-1,6.989003266E-1
1.113764169E1,5.581861734E-2,-3.371219635E-1,4.576110840E-1,5.711171863E-1
1.114563095E1,1.307122707E-1,-5.207872391E-1,3.688769341E-1,6.514408942E-1
1.115362486E1,2.767751217E-1,-7.199201584E-1,3.089528084E-1,8.308678236E-1
1.116161825E1,3.562017083E-1,-9.156761169E-1,1.854200363E-1,9.998614894E-1
1.116961392E1,3.649745584E-1,-1.053033352E0,1.614522934E-1,1.126122778E0
1.117760962E1,3.702683449E-1,-1.103613853E0,3.581199646E-1,1.217913007E0
1.118560607E1,2.927585840E-1,-1.008133888E0,6.451010704E-1,1.232151337E0
1.119360224E1,5.955719948E-2,-9.376473427E-1,2.916297913E-1,9.837568472E-1
1.120159993E1,-1.731226146E-1,-9.503521919E-1,2.873578072E-1,1.007826988E0
1.120959532E1,-1.873976290E-1,-1.128638744E0,6.657242775E-1,1.323681268E0
1.121759021E1,9.589600563E-2,-1.517446995E0,8.085246086E-1,1.722078241E0
1.122558525E1,4.911442995E-1,-1.935208321E0,6.637210846E-1,2.103991361E0
1.123358024E1,7.499532104E-1,-2.259805202E0,2.837305069E-1,2.397843275E0
1.124157232E1,8.930053711E-1,-2.555659294E0,-3.976831436E-1,2.736239190E0
1.124956603E1,8.841553926E-1,-2.550437450E0,-3.737735748E-2,2.699603492E0
1.125756032E1,7.220242023E-1,-2.207680702E0,7.442536354E-1,2.439074928E0
1.126555568E1,2.460838556E-1,-1.611646652E0,1.020082951E0,1.923156630E0
1.127354810E1,-1.551550627E-1,-1.030783176E0,6.400790215E-1,1.223228598E0
1.128154247E1,-3.047424555E-1,-8.334174156E-1,6.532030106E-1,1.101874188E0
1.128953696E1,-3.130277693E-1,-8.400034904E-1,7.718677521E-1,1.182950580E0
1.129753243E1,-2.713321447E-1,-1.154213428E0,4.913830757E-1,1.283466828E0
1.130552626E1,-1.765376627E-1,-1.793663025E0,1.862301826E-1,1.811925571E0
1.131351927E1,-1.144463718E-1,-2.380257607E0,1.296896935E-1,2.386533817E0
1.132150986E1,-9.621348977E-2,-2.727400303E0,4.802093506E-1,2.771023361E0
1.132950189E1,-5.233663321E-2,-2.919682503E0,1.282022953E0,3.189179815E0
1.133749763E1,7.244461775E-2,-2.767050266E0,1.835372925E0,3.321205982E0
1.134549310E1,1.069541574E-1,-2.342318535E0,1.856242180E0,2.990573581E0
1.135348568E1,7.817468047E-2,-1.708782196E0,1.664052963E0,2.386445084E0
1.136147798E1,6.063091755E-2,-1.172165394E0,1.746673584E0,2.104404055E0
1.136946872E1,3.517276049E-2,-9.360189438E-1,1.532323360E0,1.795935263E0
1.137746345E1,-2.904218435E-2,-1.194027424E0,1.250614166E0,1.729329561E0
1.138545786E1,-4.397878051E-2,-1.828326225E0,1.092665195E0,2.130405630E0
1.139345435E1,5.612969398E-3,-2.456280708E0,7.139163017E-1,2.557933328E0
1.140145126E1,3.145432472E-2,-3.175744295E0,-4.052686691E-2,3.176158628E0
1.140944657E1,6.254857779E-2,-3.595643997E0,3.236293793E-3,3.596189449E0
1.141744228E1,2.563481331E-1,-3.464277506E0,1.092896938E0,3.641614576E0
1.142543732E1,4.919872582E-1,-2.833159208E0,1.861806393E0,3.425662798E0
1.143343419E1,5.783299208E-1,-1.898505688E0,1.545207500E0,2.515244633E0
1.144142892E1,5.532721281E-1,-9.520521164E-1,1.208323002E0,1.634795937E0
1.144942321E1,3.089022040E-1,-6.434440613E-2,1.068804741E0,1.114407622E0
1.145741790E1,1.468291879E-2,-2.177858353E-2,6.511373520E-1,6.516668980E-1
1.146541450E1,-1.492705047E-1,-7.934441566E-1,7.775859833E-1,1.120926079E0
1.147340978E1,-2.265268862E-1,-1.995369673E0,8.712568283E-1,2.189041576E0
1.148140790E1,-2.635189593E-1,-3.068696976E0,4.632730484E-1,3.114637264E0
1.148940329E1,-2.314380258E-1,-3.812396526E0,3.167695999E-1,3.832528384E0
1.149739798E1,-1.753178239E-2,-4.320417881E0,5.770092010E-1,4.358813789E0
1.150539423E1,2.664290071E-1,-4.194712639E0,8.640422821E-1,4.291056700E0
1.151339493E1,4.946651459E-1,-3.059264183E0,1.190426826E0,3.319775140E0
1.152139290E1,4.949905872E-1,-1.380545378E0,9.233865738E-1,1.733079336E0
1.152939083E1,2.432047427E-1,-1.045269966E-1,5.800104141E-1,6.375629540E-1
1.153738552E1,-1.187869608E-1,6.110849380E-1,7.430400848E-1,9.693522122E-1
1.154538267E1,-3.137475848E-1,2.837138176E-1,6.419467926E-1,7.687826493E-1
1.155338029E1,-4.172751009E-1,-9.219033718E-1,8.379459381E-1,1.313840832E0
1.156137657E1,-4.817265570E-1,-2.271202803E0,1.631600380E0,2.837700204E0
1.156937513E1,-5.396556258E-1,-3.185183048E0,1.854794502E0,3.725168706E0
1.157736786E1,-6.293391585E-1,-3.437933922E0,1.245213509E0,3.710257957E0
1.158536454E1,-6.678543091E-1,-2.830668449E0,4.943027496E-1,2.950092957E0
1.159336103E1,-4.791399837E-1,-1.383076191E0,4.441509247E-1,1.529622476E0
1.160135728E1,-2.381127328E-1,3.690361977E-2,6.435785294E-1,6.872065731E-1
1.160935489E1,-2.971010804E-1,1.137947798E0,7.058639526E-1,1.371655264E0
1.161734864E1,-4.420277774E-1,1.175596237E0,1.341828346E0,1.837911418E0
1.162534353E1,-4.148859382E-1,4.392766953E-1,1.816118240E0,1.913995773E0
1.163333857E1,-3.763442636E-1,-9.448282719E-1,2.510204315E0,2.708405651E0
1.164133204E1,-4.511693120E-1,-2.252541780E0,3.306543350E0,4.026254730E0
1.164932259E1,-6.098341942E-1,-2.972423315E0,3.248086929E0,4.444914713E0
1.165731314E1,-7.257570028E-1,-3.082794189E0,2.740481377E0,4.188147731E0
1.166530560E1,-6.617541313E-1,-2.281373739E0,2.139855385E0,3.197118349E0
1.167329716E1,-4.225445986E-1,-1.066931963E0,1.325993538E0,1.753609596E0
1.168128853E1,-3.610502183E-1,8.448767662E-2,1.026544571E-1,3.847510432E-1
1.168928517E1,-3.965189755E-1,2.436354160E-1,-5.962562561E-2,4.691915697E-1
1.169727778E1,-3.983830214E-1,-2.487993240E-1,1.580050468E0,1.648383941E0
1.170527325E1,-2.947459817E-1,-1.213908195E0,2.986635208E0,3.237350486E0
1.171326571E1,-2.328960747E-1,-2.116270304E0,3.146014214E0,3.798716364E0
1.172125689E1,-3.049238622E-1,-2.863520622E0,3.015283585E0,4.169492057E0
1.172924767E1,-4.417358637E-1,-2.975233555E0,2.866624832E0,4.155079206E0
1.173723779E1,-6.220135689E-1,-2.514214277E0,2.978940010E0,3.947436877E0
1.174522685E1,-6.822863817E-1,-1.506962776E0,2.903351784E0,3.341542024E0
1.175321564E1,-5.001581311E-1,-4.584615231E-1,2.232680321E0,2.333496634E0
1.176120646E1,-4.708749056E-1,2.202711105E-1,1.375597000E0,1.470547397E0
1.176919931E1,-7.098008990E-1,7.885074615E-2,1.023055077E0,1.247668404E0
1.177719212E1,-7.914061546E-1,-9.639505148E-1,1.756320953E0,2.154109465E0
1.178518392E1,-5.519464016E-1,-1.865711570E0,2.326480865E0,3.032826686E0
1.179317646E1,-3.459835052E-1,-2.710295200E0,2.847575188E0,3.946402046E0
1.180117048E1,-2.571771145E-1,-3.299869299E0,3.187136650E0,4.594901249E0
1.180916544E1,-1.091087908E-1,-3.212708235E0,2.876190186E0,4.313452088E0
1.181715978E1,5.132362247E-2,-2.285326958E0,2.706078529E0,3.542345893E0
1.182515857E1,1.930403709E-1,-1.023778915E0,2.716230392E0,2.909174350E0
1.183315442E1,2.212870568E-1,-4.700362682E-2,2.589867592E0,2.599729110E0
1.184115021E1,9.302355349E-2,6.676476002E-1,2.357895851E0,2.452362034E0
1.184914091E1,-4.063907266E-1,5.602675676E-1,1.902897835E0,2.024863783E0
1.185713243E1,-8.954865336E-1,-5.949379206E-1,2.206707954E0,2.454670499E0
1.186512396E1,-8.552118540E-1,-2.180500984E0,2.601426125E0,3.500484215E0
1.187311345E1,-5.481372476E-1,-3.206224918E0,2.814769745E0,4.301541745E0
1.188110814E1,-3.475210071E-1,-3.871514320E0,3.068121910E0,4.952046651E0
1.188910216E1,-2.223538607E-1,-4.048467159E0,3.395259857E0,5.288413474E0
1.189709779E1,5.224643648E-2,-3.410054922E0,3.473723412E0,4.868054910E0
1.190509118E1,3.963184953E-1,-1.973658442E0,2.991494179E0,3.605750049E0
1.191308454E1,4.576353133E-1,-6.236724854E-1,2.100555420E0,2.238466109E0
1.192107958E1,2.295565456E-1,-4.228448868E-2,1.704863548E0,1.720768405E0
1.192907361E1,-1.695778966E-1,-3.173578978E-1,1.696508408E0,1.734247236E0
1.193706396E1,-3.543045819E-1,-1.392311335E0,2.003874779E0,2.465679768E0
1.194505380E1,-3.450253606E-1,-2.643596411E0,2.403289795E0,3.589351797E0
1.195304501E1,-2.537242174E-1,-3.717087030E0,2.644627571E0,4.568934992E0
1.196104060E1,-9.024560452E-2,-3.916779995E0,2.644402504E0,4.726750935E0
1.196903747E1,3.070080280E-2,-3.231841803E0,2.163032532E0,3.889017062E0
1.197703318E1,2.388162911E-2,-1.870774627E0,1.474857330E0,2.382345941E0
1.198503064E1,5.192413926E-3,-6.182680130E-1,9.766159058E-1,1.155881017E0
1.199302626E1,-4.241512716E-2,-6.292057037E-2,7.345914841E-1,7.385002977E-1
1.200102274E1,-4.072733223E-2,-1.754221916E-1,1.085468292E0,1.100305900E0
1.200901818E1,1.846110076E-2,-8.850430250E-1,1.564298630E0,1.797407069E0
1.201701814E1,9.721892327E-2,-1.930302024E0,2.287189484E0,2.994453733E0
1.202501673E1,2.957370281E-1,-3.044155359E0,2.578309059E0,4.000252473E0
1.203301415E1,3.815363050E-1,-3.603941202E0,2.075993538E0,4.176566929E0
1.204100946E1,2.796876431E-1,-3.482346058E0,1.566479683E0,3.828683565E0
1.204900357E1,1.405095309E-1,-2.602695942E0,1.493855476E0,3.004225903E0
1.205699536E1,8.665164560E-2,-1.380779624E0,1.473400116E0,2.021130570E0
1.206498802E1,4.884009063E-2,-4.029521942E-1,1.106837273E0,1.178916695E0
1.207298091E1,-1.021091118E-1,4.429752827E-1,6.017150879E-1,7.541315660E-1
1.208097669E1,-3.137375116E-1,6.982738972E-1,5.337028503E-1,9.331968678E-1
1.208897255E1,-3.820671737E-1,-1.058571339E-1,1.213706017E0,1.276817666E0
1.209696716E1,-1.419763565E-1,-1.574759960E0,2.125504494E0,2.649112223E0
1.210496228E1,7.841010392E-2,-2.754971027E0,2.603737831E0,3.791498938E0
1.211295552E1,2.162489295E-1,-3.683294296E0,2.913265228E0,4.701120586E0
1.212095091E1,2.541308403E-1,-3.921605825E0,2.364491463E0,4.586326919E0
1.212894544E1,3.093934357E-1,-3.380194664E0,1.460166931E0,3.695068028E0
1.213694228E1,1.859898269E-1,-2.117690086E0,8.491821289E-1,2.289173171E0
1.214494044E1,-9.268522263E-2,-7.008938789E-1,6.823921204E-1,9.825995044E-1
1.215293751E1,-3.195007741E-1,2.438240051E-1,8.187484741E-2,4.101638463E-1
1.216093017E1,-4.774231017E-1,8.175277710E-1,-7.253332138E-1,1.192641080E0
1.216892193E1,-7.104858160E-1,8.298044205E-1,-7.703480721E-1,1.336712992E0
1.217691423E1,-9.958816171E-1,4.279227257E-1,-4.443111420E-1,1.171456549E0
1.218490454E1,-9.170266986E-1,-5.565624237E-1,2.409877777E-1,1.099442953E0
1.219289524E1,-5.583424568E-1,-1.681170702E0,9.637136459E-1,2.016637107E0
1.220089259E1,-1.663291454E-1,-2.505885124E0,1.493151665E0,2.921750765E0
1.220888962E1,1.701331288E-1,-2.984510899E0,1.576539040E0,3.379604404E0
1.221688982E1,2.678511739E-1,-2.969658136E0,1.350065231E0,3.273116226E0
1.222488829E1,2.957763374E-1,-2.662486076E0,1.076384544E0,2.887026054E0
1.223288661E1,3.124347925E-1,-1.952066660E0,9.133749008E-1,2.177712895E0
1.224088239E1,3.234462738E-1,-1.144252300E0,4.093475342E-1,1.257575533E0
1.224887900E1,2.157319039E-1,-4.787673950E-1,-2.194213867E-2,5.255853217E-1
1.225687251E1,1.421158910E-1,7.202911377E-2,-9.649896622E-2,1.862717643E-1
1.226486774E1,1.762221158E-1,3.289470673E-1,-8.929681778E-2,3.837112571E-1
1.227286302E1,1.558651030E-1,2.075967789E-1,-1.654291153E-1,3.078264854E-1
1.228086134E1,1.393166333E-1,-4.284000397E-1,-4.359626770E-1,6.268964620E-1
1.228885841E1,5.526742339E-2,-1.449051380E0,-3.442130089E-1,1.490398264E0
1.229685751E1,-1.141203046E-1,-2.317042589E0,1.035213470E-2,2.319874344E0
1.230485360E1,-2.931038141E-1,-3.012853146E0,3.565835953E-2,3.027286812E0
1.231284974E1,-3.941974044E-1,-3.358944654E0,-2.645001411E-1,3.392323851E0
1.232084360E1,-4.272838831E-1,-3.374660969E0,-5.399136543E-1,3.444185669E0
1.232883755E1,-4.470173120E-1,-2.986588955E0,-3.912167549E-1,3.045092546E0
1.233683341E1,-3.691482246E-1,-2.376333714E0,-1.197934151E-1,2.407817018E0
1.234483263E1,-3.085877299E-1,-1.549733639E0,-1.169853210E-1,1.584482977E0
1.235283415E1,-2.827898860E-1,-7.978501320E-1,-7.692384720E-1,1.143793154E0
1.236083364E1,-3.220129013E-1,-3.227877617E-1,-1.184935570E0,1.269628510E0
1.236883154E1,-3.347890675E-1,-5.176162720E-2,-1.073108673E0,1.125311161E0
1.237682685E1,-2.183465511E-1,-2.276639938E-1,-8.302564621E-1,8.881620929E-1
1.238482216E1,-1.442982107E-1,-6.971521378E-1,-1.105329990E0,1.314761372E0
1.239281782E1,-1.701475978E-1,-1.307294369E0,-1.488655567E0,1.988482881E0
1.240081497E1,-1.961623430E-1,-1.721584320E0,-1.234685421E0,2.127623163E0
1.240881208E1,-1.811580956E-1,-1.840768337E0,-7.636256218E-1,2.001092306E0
1.241680446E1,-7.134133577E-2,-1.706553459E0,-4.263720512E-1,1.760456595E0
1.242480232E1,-2.661766112E-2,-1.342067242E0,-3.743638992E-1,1.393557071E0
1.243280052E1,-1.334397495E-2,-9.555921555E-1,-3.274211884E-1,1.010217335E0
1.244080091E1,-4.325337708E-2,-5.083198547E-1,-3.148264885E-1,5.994794802E-1
1.244880396E1,-3.417612612E-2,-1.863603592E-1,-5.265254974E-1,5.595777788E-1
1.245680134E1,3.129354119E-2,-1.160812378E-1,-1.039885521E0,1.046812321E0
1.246479728E1,6.995929778E-2,-1.134486198E-1,-6.918468475E-1,7.045686291E-1
1.247279286E1,1.271431595E-1,-1.853032112E-1,-1.470279694E-2,2.252084264E-1
1.248078958E1,7.309009135E-2,-3.059067726E-1,4.875183105E-2,3.182732411E-1
1.248878685E1,-6.830694526E-2,-4.324393272E-1,-2.991499901E-1,5.302455347E-1
1.249678583E1,-2.489407212E-1,-4.497957230E-1,-2.853751183E-1,5.879852321E-1
1.250478568E1,-3.691708744E-1,-4.792141914E-1,-7.885503769E-2,6.100422057E-1
1.251278478E1,-3.825522661E-1,-5.142283440E-1,-1.621942520E-1,6.611232876E-1
1.252078236E1,-2.583563328E-1,-4.815535545E-1,-3.830957413E-1,6.673860708E-1
1.252877962E1,-1.534545273E-1,-3.847560883E-1,-4.035964012E-1,5.783386503E-1
1.253677767E1,-9.838752449E-2,-2.140693665E-1,-4.755330086E-1,5.306952429E-1
1.254477704E1,-1.259977818E-1,-8.886814117E-2,-6.139998436E-1,6.330630265E-1
1.255277376E1,-1.884440184E-1,-3.339862823E-2,-7.252516747E-1,7.500777346E-1
1.256077196E1,-3.028321862E-1,5.061912537E-2,-6.755590439E-1,7.420577138E-1
1.256877232E1,-3.958082795E-1,1.082334518E-1,-4.533329010E-1,6.114649568E-1
1.257677489E1,-4.695627987E-1,1.283864975E-1,-7.215161324E-1,8.703779891E-1
1.258477642E1,-4.740430415E-1,1.182889938E-1,-5.129137039E-1,7.083710602E-1
1.259277372E1,-3.520833850E-1,6.193637848E-2,-2.097167969E-1,4.144634602E-1
1.260077673E1,-1.871662438E-1,-9.922504425E-2,-3.461055756E-1,4.057904406E-1
1.260877654E1,-1.214803159E-1,-2.966718674E-1,-6.065065861E-1,6.860188795E-1
1.261677306E1,-3.597162664E-2,-4.042739868E-1,-5.177748203E-1,6.578922244E-1
1.262476775E1,8.020780236E-2,-4.021224976E-1,-3.138911724E-1,5.163946773E-1
1.263276165E1,9.705898166E-2,-3.693714142E-1,-1.910340786E-1,4.270242461E-1
1.264075587E1,1.942118071E-2,-4.176712036E-1,-3.924462795E-1,5.734461604E-1
1.264875024E1,-5.456292629E-2,-5.071992874E-1,-8.537306786E-1,9.945271749E-1
1.265674489E1,-1.821150631E-2,-5.650711060E-1,-6.961889267E-1,8.968366827E-1
1.266474040E1,-2.148002386E-5,-6.168546677E-1,-3.813793659E-1,7.252309303E-1
1.267273821E1,-6.690525264E-2,-6.826105118E-1,-3.452014923E-1,7.678525209E-1
1.268073423E1,-2.547198534E-1,-7.560491562E-1,-6.450202465E-1,1.025935499E0
1.268873298E1,-4.277354479E-1,-7.890472412E-1,-9.147953987E-1,1.281563024E0
1.269673325E1,-5.962439179E-1,-7.134418488E-1,-9.060328007E-1,1.298230148E0
1.270473536E1,-6.523141861E-1,-6.007156372E-1,-1.148818254E0,1.451260299E0
1.271273642E1,-6.150169969E-1,-4.914751053E-1,-1.346601725E0,1.559849317E0
1.272073677E1,-5.597615242E-1,-3.304328918E-1,-1.229598045E0,1.390837954E0
1.272873454E1,-4.347383380E-1,-1.630105972E-1,-1.063965917E0,1.160858884E0
1.273672986E1,-3.834535480E-1,-1.836967468E-2,-9.945049286E-1,1.066027261E0
1.274472665E1,-3.527696729E-1,1.101818085E-1,-1.086563706E0,1.147696459E0
1.275272200E1,-3.372760415E-1,1.698961258E-1,-1.160098791E0,1.220020093E0
1.276071786E1,-3.132405877E-1,1.896562576E-1,-1.268204927E0,1.320012462E0
1.276871349E1,-2.908617258E-1,1.433229446E-1,-1.401966810E0,1.438976354E0
1.277671095E1,-2.110737711E-1,1.078405380E-1,-1.742331505E0,1.758380161E0
1.278470556E1,-1.059963107E-1,8.348846436E-2,-1.965185404E0,1.969811974E0
1.279270048E1,-2.629062533E-2,3.459262848E-2,-2.021741152E0,2.022207984E0
1.280069681E1,5.836027861E-2,-9.476661682E-3,-1.805419683E0,1.806387545E0
1.280869107E1,1.154899895E-1,-2.799510956E-2,-1.266340733E0,1.271904287E0
1.281668532E1,2.148465812E-1,-4.563617706E-2,-7.628481388E-1,7.938381428E-1
1.282467821E1,2.391708642E-1,-5.111694336E-2,-7.057375908E-1,7.469144471E-1
1.283267290E1,1.694255769E-1,-4.006195068E-2,-9.800529480E-1,9.953962864E-1
1.284067196E1,9.673281014E-2,4.280853271E-2,-1.210621238E0,1.215233964E0
1.284866966E1,2.768337727E-2,1.452493668E-1,-1.270449400E0,1.279025186E0
1.285666462E1,-8.990854025E-2,2.889795303E-1,-1.440546274E0,1.471993982E0
1.286465888E1,-1.828796566E-1,3.999166489E-1,-1.760409832E0,1.814502982E0
1.287265454E1,-2.458607256E-1,4.722690582E-1,-1.925898790E0,1.998142065E0
1.288064853E1,-2.167178988E-1,4.905929565E-1,-2.099491119E0,2.166912794E0
1.288864774E1,-8.955034614E-2,4.601249695E-1,-2.137044430E0,2.187851263E0
1.289664552E1,1.670810580E-2,4.205293655E-1,-2.049329758E0,2.092098603E0
