"Time (s)","Linear Acceleration x (m/s^2)","Linear Acceleration y (m/s^2)","Linear Acceleration z (m/s^2)","Absolute acceleration (m/s^2)"
2.101195700E-2,-2.577769756E-2,-2.016115189E-1,-1.177678108E-1,2.349062611E-1
2.900668300E-2,2.478915453E-1,-2.575588226E-2,-4.889798164E-1,5.488304334E-1
3.700078500E-2,5.441911221E-1,1.012773514E-1,-5.792322159E-1,8.011935092E-1
4.499644900E-2,4.628902674E-1,1.761331558E-1,-2.664942741E-1,5.624139813E-1
5.299547200E-2,2.450338602E-1,1.911840439E-1,2.110958099E-2,3.115101053E-1
6.099262100E-2,1.518363953E-1,2.839546204E-1,8.144807816E-2,3.321419979E-1
6.899305000E-2,2.065330744E-1,3.831815720E-1,-4.546737671E-2,4.376657517E-1
7.699117500E-2,3.852953911E-1,3.088340759E-1,-2.021365166E-1,5.335636758E-1
8.498828500E-2,1.992331743E-1,2.937316895E-1,-2.147665024E-1,4.148455299E-1
9.298582400E-2,-2.755153179E-2,2.038125992E-1,-1.753463745E-1,2.702684102E-1
1.009840270E-1,-1.208033562E-1,4.973793030E-2,-1.781830788E-1,2.209446133E-1
1.089796910E-1,-1.915824413E-2,-2.236747742E-2,-1.061253548E-1,1.101359764E-1
1.169743780E-1,1.109093428E-1,-7.032489777E-2,-1.322984695E-1,1.864117985E-1
1.249700820E-1,2.720384598E-1,-7.121562958E-2,-2.772998810E-2,2.825695343E-1
1.329645350E-1,2.936354876E-1,-3.451728821E-2,1.681089401E-2,2.961348492E-1
1.409566440E-1,3.167918921E-1,-5.080890656E-2,-9.172868729E-2,3.336956696E-1
1.489503160E-1,2.331223488E-1,-3.052234650E-2,-8.129596710E-2,2.487703306E-1
1.569469180E-1,4.020714760E-2,3.000164032E-2,-6.640100479E-2,8.322143100E-2
1.649440270E-1,-2.058768272E-2,1.027536392E-1,3.645992279E-2,1.109571495E-1
1.729382850E-1,-4.190003872E-2,1.639957428E-1,1.411128044E-1,2.203702350E-1
1.809355110E-1,-8.297324181E-2,1.970939636E-1,1.585912704E-2,2.144343752E-1
1.889330500E-1,-1.310477257E-1,1.586351395E-1,-6.878423691E-2,2.169559520E-1
1.969299640E-1,-9.874737263E-2,5.887126923E-2,8.628892899E-2,1.437450841E-1
2.049248860E-1,-5.427765846E-2,-2.263450623E-2,2.089810371E-1,2.170978097E-1
2.129248080E-1,2.349495888E-2,-7.763767242E-2,1.031923294E-1,1.312565355E-1
2.209249250E-1,1.726877689E-2,-8.973884583E-2,3.337097168E-2,9.728768091E-2
2.289215270E-1,-9.626626968E-3,-3.289985657E-2,1.234908104E-1,1.281602620E-1
2.369176600E-1,-2.289724350E-2,3.150558472E-2,1.804914474E-1,1.846457371E-1
2.449130110E-1,2.165979147E-1,-9.286880493E-3,3.638744354E-2,2.198293630E-1
2.529072690E-1,2.302289009E-3,-1.229877472E-1,-1.129212379E-1,1.669805153E-1
2.609010970E-1,-3.759312630E-2,-7.256317139E-2,-1.339893341E-1,1.569452090E-1
2.688959800E-1,-6.050491333E-2,-5.849838257E-3,-6.563901901E-2,8.946253943E-2
2.768922690E-1,3.628337383E-2,2.924251556E-2,-8.005428314E-2,9.262988817E-2
2.848924250E-1,3.123402596E-3,1.300449371E-1,-3.982067108E-3,1.301433755E-1
2.928894180E-1,-7.724201679E-2,2.614154816E-1,1.311492920E-2,2.729036177E-1
3.008873470E-1,-1.851499081E-1,2.719469070E-1,-7.263660431E-2,3.369149522E-1
3.088865270E-1,-1.252412796E-1,2.282037735E-1,-2.579689026E-4,2.603121336E-1
3.168854330E-1,1.722848415E-2,2.188196182E-1,1.994957924E-1,2.966098737E-1
3.248855890E-1,-5.389809608E-3,3.356695175E-1,2.832794189E-1,4.392610889E-1
3.328865270E-1,-4.981160164E-3,3.888034821E-1,2.474451065E-1,4.608926560E-1
3.408864490E-1,-5.627608299E-2,5.869598389E-1,2.972517014E-1,6.603388705E-1
3.488864490E-1,-3.531026840E-2,8.914527893E-1,3.714175224E-1,9.663777039E-1
3.568848080E-1,-1.516902447E-2,1.128910065E0,4.237365723E-1,1.205910741E0
3.648840270E-1,3.254735470E-2,1.272650719E0,3.186793327E-1,1.312347400E0
3.728826990E-1,5.721400738E0,2.366033554E0,-3.879880905E-2,6.191449469E0
3.808862930E-1,4.157934189E0,3.164840698E0,-3.150544167E-1,5.234872744E0
3.888894570E-1,2.613142490E0,2.714997292E0,-4.216096401E-1,3.791764584E0
3.968935970E-1,8.627375364E-1,2.511606216E0,-2.251744270E-1,2.665180175E0
4.048934020E-1,1.654779911E0,1.122848511E0,7.308611870E-1,2.129141472E0
4.128944570E-1,1.290879726E0,-1.519373417E0,1.126327038E0,2.289864329E0
4.208919180E-1,-8.387587667E-1,-1.465754509E0,1.364218235E0,2.170954615E0
4.288905890E-1,-2.691590786E0,-8.267583847E-1,9.673883915E-1,2.977252204E0
4.368905890E-1,-3.009439945E0,-1.155920506E0,2.453093529E-1,3.233118878E0
4.448882460E-1,-2.931162596E0,-1.367166042E0,-3.325502872E-1,3.251376146E0
4.528861750E-1,-2.936056614E0,-1.287527084E0,-8.665060997E-1,3.320991908E0
4.608823470E-1,-2.510517359E0,-9.953212738E-1,-8.870730400E-1,2.842579889E0
4.688795740E-1,-1.731026173E0,-9.370136261E-1,-6.843752861E-1,2.083942340E0
4.768776990E-1,-3.029870391E-1,-9.768981934E-1,-2.501685619E-1,1.052955619E0
4.848738320E-1,2.129125595E-2,-5.788345337E-1,2.165317535E-1,6.183758851E-1
4.928738320E-1,5.018534660E-1,-4.557533264E-1,4.293823242E-1,8.024569622E-1
5.008697300E-1,8.442732692E-1,-2.776746750E-1,3.756170273E-1,9.648775722E-1
5.088655110E-1,6.924753189E-1,-1.748085022E-3,2.252392769E-1,7.281880629E-1
5.168588710E-1,5.905544758E-1,1.175136566E-1,-1.545960903E-1,6.216622873E-1
5.248519570E-1,4.035317898E-1,2.823009491E-1,-2.779989243E-1,5.655220006E-1
5.328476600E-1,4.666887522E-1,1.359891891E-1,-5.906288624E-1,7.649404578E-1
5.408407460E-1,5.748993754E-1,7.070541382E-3,-7.701694965E-1,9.611037082E-1
5.488335970E-1,5.235203505E-1,4.235458374E-2,-6.922130585E-1,8.689225434E-1
5.568314100E-1,3.284788132E-1,1.470565796E-2,-6.441900730E-1,7.232533700E-1
5.648277380E-1,2.196158171E-1,4.319953918E-2,-5.077745914E-1,5.549165190E-1
5.728199640E-1,8.366699815E-1,4.230995178E-1,4.773435593E-1,1.052086847E0
5.808153550E-1,3.377020359E-1,2.390775681E-1,5.714757442E-1,7.055389960E-1
5.888113710E-1,-1.869462729E-1,9.472942352E-2,3.341436386E-1,3.944293902E-1
5.968030110E-1,-7.577741146E-1,-2.233409882E-2,-1.933627129E-1,7.823743091E-1
6.047970350E-1,-9.958948493E-1,-3.134155273E-2,-6.115860939E-1,1.169113508E0
6.127935970E-1,-1.090811729E0,1.070814133E-1,-1.157339692E0,1.593979868E0
6.207918390E-1,-8.205769658E-1,2.337942123E-1,-1.326958418E0,1.577601006E0
6.287915660E-1,-4.451777935E-1,3.634414673E-1,-1.163917422E0,1.298066537E0
6.367926600E-1,1.837052703E-1,3.767757416E-1,-7.012372017E-1,8.169707454E-1
6.447951600E-1,6.041672826E-1,4.159784317E-1,-1.010302305E0,1.248505871E0
6.527976600E-1,8.881025314E-1,5.037021637E-2,-2.089545727E-1,9.137424574E-1
6.607999250E-1,1.105426073E0,-4.778623581E-1,4.784018993E-1,1.295834717E0
6.688007070E-1,8.011819124E-1,-7.982673645E-1,6.236612797E-1,1.291540411E0
6.768000030E-1,3.996264338E-1,-9.453926086E-1,4.477314949E-1,1.119791035E0
6.848015660E-1,1.335553527E-1,-9.861173630E-1,2.012994289E-1,1.015276290E0
6.928025820E-1,-1.236869693E-1,-8.911123276E-1,6.037974358E-2,9.016791892E-1
7.008059020E-1,-3.788632751E-1,-7.151451111E-1,-5.990171432E-2,8.115159434E-1
7.088086750E-1,-5.050390959E-1,-3.789777756E-1,-1.578688622E-1,6.508542236E-1
7.168075030E-1,-4.557906389E-1,-9.333324432E-2,-1.882357597E-1,5.018853477E-1
7.248049640E-1,-3.222549558E-1,1.564083099E-1,-1.349804401E-1,3.827943771E-1
7.328019960E-1,-1.497194767E-1,3.677654266E-1,-1.894400120E-1,4.399486889E-1
7.407999250E-1,-1.879394054E-2,4.140005112E-1,-2.542045116E-1,4.861785363E-1
7.488004330E-1,2.457898855E-2,2.976665497E-1,-1.955490112E-1,3.569998841E-1
7.567994570E-1,5.831933022E-2,9.519481659E-2,-5.324435234E-2,1.236857245E-1
7.647958630E-1,7.368957996E-2,-1.597061157E-1,-6.936550140E-3,1.760236158E-1
7.727914100E-1,-1.591110229E-2,-3.547735214E-1,6.883406639E-2,3.617396071E-1
7.807894180E-1,-4.984271526E-2,-5.332288742E-1,4.272294044E-2,5.372546679E-1
7.887874250E-1,-1.833536029E-1,-5.082330704E-1,6.516194344E-2,5.442108749E-1
7.967829720E-1,-2.718539238E-1,-3.777379990E-1,4.179477692E-2,4.672658292E-1
8.047785580E-1,-3.003525734E-1,-1.753635406E-1,-7.754659653E-2,3.563390441E-1
8.127782850E-1,-2.279568911E-1,5.567359924E-2,-1.728193760E-1,2.914282597E-1
8.207794960E-1,-1.685824990E-1,2.146587372E-1,-1.672618389E-1,3.201170961E-1
8.287837140E-1,-1.194333434E-1,3.351812363E-1,-6.361579895E-2,3.614661181E-1
8.367848470E-1,-8.937817812E-2,3.693237305E-1,3.887653351E-3,3.800047243E-1
8.447851210E-1,-8.643090725E-2,3.434934616E-1,-5.383729935E-3,3.542415058E-1
8.527861750E-1,-6.113266945E-2,2.458639145E-1,-5.810236931E-2,2.599272072E-1
8.607829720E-1,-5.721914768E-2,1.052169800E-1,-6.322813034E-2,1.354342653E-1
8.687821520E-1,1.458525658E-2,-1.835823059E-2,-5.685687065E-2,6.150169168E-2
8.767773080E-1,5.337554216E-2,-1.824007034E-1,6.857156754E-3,1.901735673E-1
8.847710970E-1,3.456258774E-2,-2.960309982E-1,8.776831627E-2,3.106963175E-1
8.927677770E-1,-6.832122803E-2,-3.449478149E-1,9.276366234E-2,3.636782675E-1
9.007671910E-1,-1.986668706E-1,-3.556451797E-1,4.817008972E-2,4.102101619E-1
9.087665270E-1,-3.037160039E-1,-3.064823151E-1,-1.041436195E-2,4.316054673E-1
9.167667220E-1,-3.200677037E-1,-2.524871826E-1,-2.366328239E-2,4.083540906E-1
9.247634020E-1,-2.754892111E-1,-1.792535782E-1,4.385900497E-2,3.315867353E-1
9.327562140E-1,-1.884126067E-1,-1.108589172E-1,6.543397903E-2,2.281898672E-1
9.407505890E-1,-7.337933779E-2,1.218795776E-2,-3.189563751E-2,8.093457371E-2
9.487500820E-1,9.157526493E-2,1.229763031E-1,-1.784164906E-1,2.352480486E-1
9.567460190E-1,2.019509077E-1,2.095346451E-1,-2.379407883E-1,3.759052478E-1
9.647429330E-1,2.308607101E-1,3.777389526E-1,-1.928822994E-1,4.828943624E-1
9.727404330E-1,2.660677433E-1,4.890537262E-1,-1.134738922E-1,5.681917945E-1
9.807382850E-1,2.581100464E-1,5.144205093E-1,-3.484129906E-2,5.765961954E-1
9.887355110E-1,2.232385874E-1,4.441404343E-1,-3.301405907E-2,4.981828182E-1
9.967337930E-1,2.306667566E-1,3.139257431E-1,-1.191947460E-1,4.073866864E-1
1.004730394E0,2.116242647E-1,1.905670166E-1,-1.491398811E-1,3.214705607E-1
1.012729261E0,2.142753601E-1,7.656192780E-2,-1.185064316E-1,2.565529830E-1
1.020725824E0,1.452333927E-1,-1.131248474E-2,-6.565642357E-2,1.597857210E-1
1.028723089E0,1.362322569E-1,-8.006095886E-2,-2.952241898E-2,1.607499865E-1
1.036719339E0,6.745386124E-2,-6.736278534E-2,-4.621195793E-2,1.059401402E-1
1.044714886E0,1.543879509E-3,-4.286766052E-3,-6.817412376E-2,6.832621077E-2
1.052713441E0,-2.334690094E-2,5.178070068E-2,-4.775333405E-2,7.420714022E-2
1.060713324E0,-5.816102028E-2,9.848594666E-2,-2.551436424E-2,1.171886033E-1
1.068711957E0,-5.926573277E-2,7.827472687E-2,3.456020355E-2,1.040853862E-1
1.076707777E0,-2.448689938E-2,5.335235596E-2,4.889988899E-2,7.640210253E-2
1.084702152E0,2.431440353E-2,-1.705360413E-2,4.421544075E-2,5.326369151E-2
1.092694652E0,8.014714718E-2,-5.640125275E-2,-5.655288696E-3,9.816643419E-2
1.100687816E0,1.098406315E-1,-1.125164032E-1,4.020476341E-2,1.623001180E-1
1.108685121E0,6.757116318E-2,-1.183757782E-1,4.791116714E-2,1.444789497E-1
1.116682230E0,5.310535431E-2,-9.302043915E-2,1.500296593E-2,1.081576153E-1
1.124680043E0,-9.872317314E-3,-6.997680664E-2,2.277183533E-2,7.424804779E-2
1.132676566E0,-1.260557175E-1,9.204292297E-2,6.870937347E-2,1.705371560E-1
1.140676293E0,-8.800482750E-2,1.153583527E-1,-1.699423790E-2,1.460862872E-1
1.148673168E0,-5.767798424E-2,5.490493774E-2,-9.169578552E-3,8.015848817E-2
1.156666996E0,-1.083185673E-1,1.071557999E-1,7.211542130E-2,1.685701974E-1
1.164662738E0,-1.010783911E-1,1.354827881E-1,1.364176273E-1,2.172146313E-1
1.172660121E0,-5.224847794E-2,1.108837128E-1,1.270451546E-1,1.765377368E-1
1.180659066E0,-7.704496384E-3,7.881641388E-2,1.136944294E-1,1.385561606E-1
1.188657777E0,1.438260078E-3,8.175849915E-3,1.154520512E-1,1.157501155E-1
1.196651449E0,4.504799843E-3,-6.750392914E-2,1.296226978E-1,1.462159959E-1
1.204645589E0,-6.118059158E-3,-1.530008316E-1,1.156404018E-1,1.918837869E-1
1.212643011E0,-1.907062531E-2,-2.266016006E-1,1.091070175E-1,2.522227496E-1
1.220641957E0,-9.627997875E-2,-3.217706680E-1,1.767177582E-1,3.795199114E-1
1.228638558E0,-1.901810169E-1,-3.426904678E-1,1.915605068E-1,4.362350327E-1
1.236634457E0,-2.317433953E-1,-3.516016006E-1,1.729152203E-1,4.552234180E-1
1.244630238E0,-2.633604407E-1,-3.461503983E-1,1.541447639E-1,4.614536035E-1
1.252625707E0,-2.548395991E-1,-2.853765488E-1,2.113516331E-1,4.370955372E-1
1.260622894E0,-2.287646532E-1,-1.936044693E-1,1.633212566E-1,3.413060063E-1
1.268617621E0,-1.619033813E-1,-4.945182800E-2,3.733563423E-2,1.733555242E-1
1.276612894E0,-1.898491383E-2,1.312732697E-2,5.638360977E-3,2.376015111E-2
1.284609183E0,7.861232758E-2,4.946708679E-2,4.169988632E-2,1.018124317E-1
1.292604105E0,7.343459129E-2,1.217765808E-1,-6.260418892E-2,1.553752210E-1
1.300597425E0,-2.414262295E-2,1.797170639E-1,-1.781156063E-1,2.541776121E-1
1.308592191E0,-1.371792555E-1,1.417436600E-1,-2.110748291E-1,2.888979002E-1
1.316588480E0,-3.533892632E-1,2.496461868E-1,-1.761274338E-1,4.671488658E-1
1.324586605E0,-2.258739471E-1,-4.066467285E-3,-1.785087585E-1,2.879252560E-1
1.332583402E0,-1.161246300E-1,-3.392543793E-1,-1.237559319E-2,3.587918879E-1
1.340581996E0,-6.233060360E-2,-5.140104294E-1,1.746056080E-1,5.464237769E-1
1.348576800E0,-3.038477898E-2,-5.309038162E-1,2.582790852E-1,5.911769470E-1
1.356572582E0,-6.369590759E-3,-4.211473465E-1,2.224287987E-1,4.763194617E-1
1.364568480E0,5.321311951E-2,-2.757501602E-1,6.821918488E-2,2.890045746E-1
1.372568011E0,1.215171814E-1,-9.256649017E-2,-1.024916172E-1,1.839551904E-1
1.380566839E0,1.653466225E-1,4.468441010E-2,-1.943612099E-1,2.590607689E-1
1.388564222E0,1.871742010E-1,1.986341476E-1,-1.873559952E-1,3.310467868E-1
1.396563753E0,2.333483696E-1,3.311195374E-1,-1.280074120E-1,4.248264435E-1
1.404561878E0,2.602038383E-1,3.777627945E-1,-6.975293159E-2,4.639787041E-1
1.412562191E0,3.443834782E-1,3.647813797E-1,-3.130960464E-2,5.026387633E-1
1.420564300E0,3.970962763E-1,2.825069427E-1,-4.090809822E-2,4.890491773E-1
1.428565902E0,4.490346909E-1,1.812763214E-1,-6.981945038E-2,4.892525053E-1
1.436567503E0,4.611139297E-1,7.553195953E-2,-7.238531113E-2,4.728327044E-1
1.444565550E0,4.140467644E-1,-1.782226562E-2,-3.953528404E-2,4.163116560E-1
1.452565277E0,3.748095036E-1,-8.916854858E-2,4.651069641E-3,3.852983603E-1
1.460563753E0,3.459833860E-1,-1.288785934E-1,8.620452881E-2,3.791377270E-1
1.468563050E0,3.101207018E-1,-1.654939651E-1,1.640605927E-1,3.879162026E-1
1.476563793E0,2.653924227E-1,-1.536626816E-1,2.097589970E-1,3.715429915E-1
1.484564652E0,2.245879173E-1,-1.270694733E-1,2.593891621E-1,3.658812936E-1
1.492563089E0,1.455637217E-1,-7.891559601E-2,2.110457420E-1,2.682475975E-1
1.500563128E0,4.898393154E-2,2.860260010E-2,1.041848660E-1,1.186255477E-1
1.508559925E0,-1.985716820E-2,4.940128326E-2,-1.004934311E-3,5.325226577E-2
1.516557660E0,-9.206247330E-2,8.404159546E-2,-3.514981270E-2,1.295144706E-1
1.524554730E0,-1.610997915E-1,1.090192795E-1,-2.134799957E-3,1.945325256E-1
1.532550433E0,-1.883292198E-1,1.314306259E-1,-6.466102600E-2,2.385853155E-1
1.540544378E0,-2.388511896E-1,1.200084686E-1,-1.666365862E-1,3.149915478E-1
1.548540824E0,-2.210178375E-1,1.106033325E-1,-1.550601721E-1,2.917629837E-1
1.556539261E0,-1.140524149E-1,8.640098572E-2,-2.061835527E-1,2.509676097E-1
1.564537035E0,-1.655817032E-3,5.947971344E-2,-1.984425783E-1,2.071715109E-1
1.572534105E0,5.921649933E-2,6.578636169E-2,-1.946518421E-1,2.138311923E-1
1.580531253E0,1.138433218E-1,8.623027802E-2,-2.404254675E-1,2.796432874E-1
1.588528089E0,1.516457796E-1,7.320117950E-2,-2.356702089E-1,2.896468583E-1
1.596525707E0,2.799746990E-1,6.996536255E-2,-2.575188875E-1,3.867776641E-1
1.604524066E0,4.013030529E-1,8.842372894E-2,-3.277384043E-1,5.256190234E-1
1.612522816E0,5.284631252E-1,1.241064072E-1,-3.963062763E-1,6.721118506E-1
1.620522191E0,6.148977280E-1,1.147880554E-1,-5.030241013E-1,8.026884576E-1
1.628519964E0,7.122919559E-1,1.131248474E-1,-5.533781052E-1,9.090568678E-1
1.636517191E0,7.673871517E-1,1.072301865E-1,-5.973612070E-1,9.783771078E-1
1.644514066E0,7.443730831E-1,1.211462021E-1,-5.755428076E-1,9.486923698E-1
1.652511722E0,6.863082647E-1,1.236696243E-1,-4.778447151E-1,8.453690212E-1
1.660505941E0,5.744667053E-1,1.148920059E-1,-3.435685635E-1,6.791550091E-1
1.668505238E0,5.035961866E-1,1.088733673E-1,-2.730771303E-1,5.831240420E-1
1.676502816E0,4.306360483E-1,8.166122437E-2,-1.946148872E-1,4.795736815E-1
1.684502308E0,4.971034527E-1,6.893444061E-2,-2.220860720E-1,5.488041756E-1
1.692498128E0,6.097009182E-1,3.455924988E-2,-3.806352615E-1,7.195920745E-1
1.700494964E0,5.351653099E-1,6.201457977E-2,-4.808869362E-1,7.221495430E-1
1.708488753E0,2.790620327E-1,-4.430770874E-3,-5.112918615E-1,5.825071824E-1
1.716479691E0,7.952785492E-2,-1.694355011E-1,-5.332779288E-1,5.651711406E-1
1.724473480E0,-8.502101898E-2,-2.149715424E-1,-5.238950849E-1,5.726319914E-1
1.732466839E0,-1.333880424E-2,-1.553335190E-1,-5.748026371E-1,5.955707325E-1
1.740461058E0,1.288046837E-1,-9.594917297E-3,-5.684803128E-1,5.829687599E-1
1.748455511E0,2.004570961E-1,9.056472778E-2,-4.791340828E-1,5.272138907E-1
1.756450277E0,3.375806808E-1,1.716184616E-1,-4.051693082E-1,5.545951503E-1
1.764445238E0,5.194466114E-1,2.074308395E-1,-4.509369135E-1,7.184681171E-1
1.772441644E0,6.790013313E-1,2.388219833E-1,-5.190940499E-1,8.874330287E-1
1.780438402E0,8.138244152E-1,2.730312347E-1,-5.717338920E-1,1.031375721E0
1.788438089E0,9.001770020E-1,2.789611816E-1,-5.280560255E-1,1.080269014E0
1.796436253E0,9.216222763E-1,2.518882751E-1,-3.915873766E-1,1.032557987E0
1.804435043E0,8.858852386E-1,1.654453278E-1,-1.607514620E-1,9.154265918E-1
1.812430863E0,7.443163395E-1,5.089187622E-2,4.971337318E-2,7.477086436E-1
1.820429808E0,5.868623257E-1,-3.726100922E-2,3.570270538E-2,5.891268584E-1
1.828426019E0,3.821766376E-1,-1.087627411E-1,-1.052753925E-1,4.110610958E-1
1.836422660E0,2.258105278E-1,-1.946039200E-1,-9.620535374E-2,3.132356146E-1
1.844416449E0,1.746239662E-1,-2.802143097E-1,-1.659154892E-2,3.305886695E-1
1.852410316E0,1.535336971E-1,-2.816829681E-1,-1.218852997E-1,3.431820464E-1
1.860407035E0,4.272389412E-2,-1.397333145E-1,-1.963875294E-1,2.447831530E-1
1.868406371E0,7.390737534E-2,-1.631851196E-1,-3.016250134E-1,3.508123887E-1
1.876402582E0,1.663336754E-1,-3.374147415E-1,-4.577638507E-1,5.925059851E-1
1.884397777E0,2.249002457E-1,-4.779424667E-1,-2.577268481E-1,5.877348469E-1
1.892392230E0,2.257330418E-1,-5.061483383E-1,4.762995243E-2,5.562464911E-1
1.900388050E0,2.432339191E-1,-4.438762665E-1,1.921284199E-1,5.413891476E-1
1.908384105E0,2.743611336E-1,-3.151922226E-1,3.680956364E-2,4.194938769E-1
1.916381175E0,3.063399792E-1,-1.413707733E-1,-1.053001881E-1,3.534374174E-1
1.924380824E0,3.577265739E-1,6.114006042E-2,-1.397832632E-1,3.889032905E-1
1.932378324E0,3.738560677E-1,1.893529892E-1,-1.461433172E-1,4.438251717E-1
1.940373168E0,3.336172104E-1,2.622871399E-1,-1.673752069E-1,4.561901432E-1
1.948368441E0,2.453763485E-1,3.059425354E-1,-1.984290481E-1,4.395275583E-1
1.956363089E0,1.385886669E-1,3.011093140E-1,-1.230907440E-1,3.535887001E-1
1.964358597E0,5.423903465E-2,2.908372879E-1,-7.331073284E-2,3.047993840E-1
1.972355160E0,8.041381836E-3,2.250585556E-1,-2.942407131E-2,2.271162549E-1
1.980352191E0,6.745100021E-3,1.588859558E-1,-5.074167252E-2,1.669280104E-1
1.988348714E0,2.877068520E-2,9.220600128E-2,-1.266272068E-1,1.592612586E-1
1.996342660E0,8.546853065E-2,5.149841309E-2,-1.754764915E-1,2.018637048E-1
2.004337269E0,4.775571823E-2,1.085948944E-1,-1.930008531E-1,2.265453354E-1
2.012329378E0,6.836295128E-2,1.439418793E-1,-1.482899189E-1,2.176755792E-1
2.020322933E0,1.184117794E-1,1.408634186E-1,-8.959949017E-2,2.046751593E-1
2.028317738E0,1.708920002E-1,7.798480988E-2,-2.414727211E-2,1.893905939E-1
2.036311293E0,2.240753174E-1,-2.088356018E-2,7.891893387E-2,2.384828486E-1
2.044307660E0,3.058867455E-1,-8.609867096E-2,1.357125044E-1,3.455395289E-1
2.052303363E0,2.970149517E-1,-5.322170258E-2,7.533442974E-2,3.110075682E-1
2.060299378E0,2.880651951E-1,-1.078033447E-2,-1.818549633E-2,2.888398942E-1
2.068296800E0,3.191778660E-1,7.849693298E-3,-8.257627487E-2,3.297801828E-1
2.076290785E0,2.976264954E-1,2.165317535E-2,-7.712483406E-2,3.082184790E-1
2.084286644E0,2.975404263E-1,2.360725403E-2,-5.323088169E-2,3.031849839E-1
2.092285550E0,2.055058479E-1,7.085227966E-2,5.512952805E-3,2.174467560E-1
2.100281410E0,2.408876419E-1,-2.067565918E-2,1.248394251E-1,2.721014902E-1
2.108281566E0,2.875046730E-1,-1.119394302E-1,1.956802607E-1,3.653493362E-1
2.116278714E0,3.237180710E-1,-1.694345474E-1,1.560523510E-1,3.973081821E-1
2.124273949E0,4.048225880E-1,-2.481489182E-1,1.604731083E-1,5.012093692E-1
2.132268753E0,3.941707611E-1,-2.545814514E-1,2.297313213E-1,5.224545763E-1
2.140264730E0,3.332023621E-1,-2.799100876E-1,2.563563585E-1,5.050663855E-1
2.148259496E0,2.778398991E-1,-2.358551025E-1,2.317318916E-1,4.318822855E-1
2.156252191E0,2.416818142E-1,-1.749897003E-1,1.804848909E-1,3.487209348E-1
2.164246605E0,2.241780758E-1,-1.020231247E-1,1.508426666E-1,2.888218096E-1
2.172240160E0,2.070488930E-1,-4.583930969E-2,1.472592354E-1,2.581777853E-1
2.180234378E0,2.051467896E-1,1.505851746E-2,1.860437393E-1,2.773521897E-1
2.188227894E0,2.132484913E-1,5.686187744E-2,2.190586329E-1,3.109579984E-1
2.196220082E0,2.010362148E-1,6.980323792E-2,2.344954014E-1,3.166640885E-1
2.204211332E0,2.041745186E-1,8.269691467E-2,2.824518681E-1,3.581969731E-1
2.212201136E0,2.079379559E-1,1.243801117E-1,2.813940048E-1,3.713370324E-1
2.220194613E0,2.192437649E-1,1.541938782E-1,3.320494890E-1,4.267322857E-1
2.228187933E0,2.480292320E-1,1.792936325E-1,3.694454432E-1,4.797443507E-1
2.236178871E0,2.078475952E-1,1.733064651E-1,3.273040056E-1,4.246924367E-1
2.244166761E0,1.086899042E-1,1.433000565E-1,2.537370920E-1,3.110159374E-1
2.252157933E0,1.087062359E-1,1.156492233E-1,2.058053017E-1,2.598992320E-1
2.260151839E0,1.063694954E-1,1.145896912E-1,2.116310596E-1,2.631215922E-1
2.268148207E0,3.524363041E-2,9.686756134E-2,2.499698400E-1,2.703892728E-1
2.276146136E0,1.170279980E-1,1.472377777E-2,2.591233253E-1,2.847055315E-1
2.284143949E0,1.978071928E-1,-2.641868591E-2,2.418813705E-1,3.135797026E-1
2.292142035E0,3.074421883E-1,-1.340398788E-1,2.077121735E-1,3.945018824E-1
2.300138207E0,2.745050192E-1,-2.124757767E-1,2.805018425E-1,4.462961403E-1
2.308134378E0,2.498970032E-1,-1.874752045E-1,3.833903074E-1,4.945539327E-1
2.316130355E0,1.803202629E-1,-1.266126633E-1,3.834922314E-1,4.422809687E-1
2.324128011E0,1.342594624E-2,-4.932117462E-2,3.109428883E-1,3.151163500E-1
2.332125472E0,-6.550180912E-2,5.614852905E-2,2.497485876E-1,2.642300159E-1
2.340121761E0,-1.447095871E-1,2.041301727E-1,2.021104097E-1,3.216498247E-1
2.348119652E0,-1.461309195E-1,3.660955429E-1,1.678606272E-1,4.284359722E-1
2.356115941E0,-1.395788193E-1,5.110883713E-1,2.278451920E-1,5.767209044E-1
2.364114183E0,-1.497747898E-1,6.225795746E-1,3.671602011E-1,7.381357786E-1
2.372108480E0,-1.794143915E-1,6.862573624E-1,5.762244463E-1,9.138781668E-1
2.380103910E0,-2.406977415E-1,6.972332001E-1,6.307837963E-1,9.705450715E-1
2.388100707E0,-3.630405664E-1,6.550865173E-1,4.117665291E-1,8.546861837E-1
2.396097660E0,-4.164509773E-1,6.173896790E-1,1.069409847E-1,7.523548408E-1
2.404098402E0,-4.569143057E-1,6.009988785E-1,9.017801285E-2,7.603304602E-1
2.412097621E0,-5.461939573E-1,5.845022202E-1,3.027993441E-1,8.553701697E-1
2.420094652E0,-6.009069681E-1,5.271539688E-1,4.941420555E-1,9.397642588E-1
2.428092816E0,-6.064050794E-1,4.214010239E-1,5.103987455E-1,8.976707763E-1
2.436091878E0,-6.440311670E-1,2.217159271E-1,4.188011885E-1,7.995802223E-1
2.444088558E0,-7.503310442E-1,-3.835391998E-2,3.610717058E-1,8.335709183E-1
2.452085863E0,-8.375242949E-1,-3.467082977E-1,3.878133297E-1,9.859273639E-1
2.460082582E0,-9.399714470E-1,-6.197032928E-1,3.215661049E-1,1.170889940E0
2.468078324E0,-1.148894191E0,-9.099273682E-1,2.174367905E-1,1.481622231E0
2.476073753E0,-1.342016101E0,-1.092861176E0,2.108883858E-1,1.743509872E0
2.484071722E0,-1.656384230E0,-1.228253365E0,2.372279167E-1,2.075690759E0
2.492069496E0,-1.686001658E0,-1.411730766E0,1.576567888E-1,2.204640790E0
2.500065003E0,-1.742294550E0,-1.662360191E0,-2.573108673E-2,2.408255342E0
2.508060824E0,-2.068326950E0,-1.719158649E0,-1.486788988E-1,2.693619916E0
2.516058636E0,-2.250528336E0,-1.835778713E0,-1.970756054E-1,2.910979228E0
2.524057386E0,-2.454473495E0,-1.961809635E0,-8.519387245E-2,3.143309590E0
2.532049613E0,-2.593418121E0,-1.953714848E0,7.708036900E-2,3.247885565E0
2.540046175E0,-2.736388683E0,-1.818919182E0,1.640642881E-1,3.289864299E0
2.548042855E0,-2.785526991E0,-1.600660324E0,2.152373791E-1,3.219875963E0
2.556041214E0,-2.806187391E0,-1.332486153E0,2.433779240E-1,3.115997406E0
2.564038988E0,-2.817304611E0,-1.059912682E0,3.492144346E-1,3.030275711E0
2.572033285E0,-2.754279137E0,-6.749610901E-1,4.859042168E-1,2.877104264E0
2.580026761E0,-2.716029167E0,-2.086973190E-1,5.507477522E-1,2.779153125E0
2.588020043E0,-2.670370579E0,2.718610764E-1,6.251912117E-1,2.756020959E0
2.596012777E0,-2.581383467E0,8.292350769E-1,7.434283495E-1,2.811379933E0
2.604004691E0,-2.378875256E0,1.386936188E0,8.945425749E-1,2.895314471E0
2.611998246E0,-2.257274389E0,1.839730263E0,9.656831026E-1,3.067969844E0
2.619992621E0,-2.218838215E0,2.267023087E0,9.382456541E-1,3.308011730E0
2.627989457E0,-2.058228493E0,2.561220169E0,7.175867558E-1,3.363195509E0
2.635985238E0,-1.858501434E0,2.684097290E0,5.702809095E-1,3.314155422E0
2.643980433E0,-1.637961388E0,2.595017433E0,6.250969172E-1,3.131737400E0
2.651975121E0,-1.464828849E0,2.274736404E0,7.356574535E-1,2.803808331E0
2.659970863E0,-1.350367785E0,1.835471153E0,8.870465755E-1,2.445260545E0
2.667965394E0,-1.218812585E0,1.250344276E0,9.340369701E-1,1.980224732E0
2.675959808E0,-1.069072485E0,8.496341705E-1,8.687182665E-1,1.618476329E0
2.683954222E0,-1.307285309E0,3.937835693E-1,8.759787083E-1,1.622158770E0
2.691950199E0,-1.444944620E0,1.923370361E-2,1.058930039E0,1.791526645E0
2.699946293E0,-1.559534311E0,-2.405481339E-1,1.193382025E0,1.978426478E0
2.707940589E0,-1.572756171E0,-4.550285339E-1,1.240415335E0,2.054079634E0
2.715934964E0,-1.638794780E0,-6.002635956E-1,1.108369470E0,2.067473723E0
2.723931918E0,-1.679181099E0,-6.257934570E-1,9.261742830E-1,2.017192459E0
2.731927660E0,-1.635142326E0,-6.080493927E-1,7.533345222E-1,1.900244035E0
2.739923050E0,-1.725331187E0,-5.971908569E-1,5.706564188E-1,1.912865226E0
2.747917464E0,-1.748368263E0,-5.980157852E-1,4.744668007E-1,1.907756066E0
2.755908988E0,-1.790669680E0,-6.368494034E-1,3.456712961E-1,1.931725578E0
2.763903402E0,-1.877830386E0,-6.945371628E-1,2.445380688E-1,2.017034382E0
2.771899925E0,-1.814844012E0,-6.922054291E-1,1.242773533E-1,1.946343239E0
2.779896761E0,-1.848990798E0,-7.712059021E-1,2.348327637E-2,2.003516154E0
2.787894027E0,-1.909374237E0,-8.069086075E-1,2.192068100E-2,2.072991074E0
2.795888480E0,-2.068361282E0,-6.915149689E-1,5.170786381E-2,2.181509810E0
2.803882621E0,-1.722361207E0,-7.076196671E-1,-1.824498177E-2,1.862145698E0
2.811878793E0,-1.490149498E0,-6.085643768E-1,-1.407169104E-1,1.615765260E0
2.819876410E0,-1.283397555E0,-5.138788223E-1,-1.089986563E-1,1.386744907E0
2.827871918E0,-1.074525595E0,-4.018898010E-1,-6.223917007E-4,1.147223192E0
2.835868011E0,-1.079446673E0,-2.030973434E-1,1.266937256E-1,1.105669459E0
2.843861839E0,-9.612006545E-1,-1.258125305E-1,2.085527182E-1,9.915794105E-1
2.851858832E0,-8.947991133E-1,3.580760956E-2,2.455208302E-1,9.285623921E-1
2.859854613E0,-7.468757629E-1,9.507465363E-2,2.276446819E-1,7.865651252E-1
2.867850003E0,-5.797048211E-1,1.045427322E-1,2.103722095E-1,6.254944676E-1
2.875845316E0,-4.160486460E-1,5.452346802E-2,1.964063644E-1,4.632976844E-1
2.883840160E0,-2.367962301E-1,-2.152156830E-2,1.403919458E-1,2.761259331E-1
2.891837074E0,-8.011719584E-2,-1.645288467E-1,1.148277521E-1,2.160414755E-1
2.899835082E0,7.799977064E-2,-3.051490784E-1,1.246925592E-1,3.387449757E-1
2.907831683E0,2.020917237E-1,-4.912862778E-1,1.172972918E-1,5.440238287E-1
2.915828207E0,2.148319483E-1,-6.465339661E-1,1.796782017E-1,7.045872490E-1
2.923824300E0,1.908005178E-1,-7.398061752E-1,2.329728603E-1,7.987454965E-1
2.931818753E0,1.134254634E-1,-6.850662231E-1,9.433948994E-2,7.007717212E-1
2.939809183E0,7.096052170E-2,-2.478895187E-1,-1.682461500E-1,3.078820815E-1
2.947803285E0,2.474456728E-1,4.282855988E-1,3.105171919E-1,5.840195558E-1
2.955798714E0,5.853372812E-1,9.220199585E-1,1.384834290E0,1.763662821E0
2.963796605E0,9.623498917E-1,1.338558197E0,2.318865299E0,2.845169878E0
2.971789808E0,8.781710863E-1,1.542716026E0,1.764834642E0,2.503157708E0
2.979783128E0,4.656888843E-1,1.446193695E0,2.584899664E-1,1.541155217E0
2.987778011E0,-1.846489906E-1,1.000096321E0,-1.283644795E0,1.637691015E0
2.995775082E0,-7.241156101E-1,2.894363403E-1,-1.561324835E0,1.745236961E0
3.003771175E0,-1.001541495E0,-4.870548248E-1,-1.106101990E0,1.569639889E0
3.011767503E0,-1.215716958E0,-1.419113159E0,-4.257571697E-1,1.916538298E0
3.019762699E0,-1.154667616E0,-2.124633312E0,8.077955246E-2,2.419472949E0
3.027759222E0,-1.271059275E0,-2.568371773E0,2.688133717E-1,2.878260911E0
3.035756097E0,-1.480913997E0,-2.761895657E0,4.475488663E-1,3.165671157E0
3.043754418E0,-1.168562412E0,-2.372571468E0,8.715536594E-1,2.784643472E0
3.051751957E0,-7.260203362E-1,-1.703994751E0,1.119158864E0,2.164074907E0
3.059748207E0,-3.191437125E-1,-8.321838379E-1,1.101294279E0,1.416768061E0
3.067743597E0,-7.600042224E-2,1.454181671E-1,8.905138969E-1,9.055040078E-1
3.075738441E0,3.734421730E-2,9.396896362E-1,6.314597130E-1,1.132763246E0
3.083735199E0,3.951805830E-2,1.725464821E0,3.998950720E-1,1.771639521E0
3.091734808E0,-1.567184925E-1,2.256205559E0,3.408420086E-1,2.287181122E0
3.099732816E0,-4.486369193E-1,2.445200920E0,3.922934532E-1,2.516779048E0
3.107731058E0,-7.301075459E-1,2.289787292E0,3.904674053E-1,2.434881448E0
3.115726761E0,-8.408589959E-1,1.705941200E0,3.344703913E-1,1.931100638E0
3.123723519E0,-8.274191618E-1,1.081507683E0,3.320838213E-1,1.401627983E0
3.131721097E0,-7.224319577E-1,3.758277893E-1,3.765381575E-1,8.971819463E-1
3.139718011E0,-5.436409712E-1,-1.980295181E-1,3.505442142E-1,6.764927507E-1
3.147713714E0,-3.712301552E-1,-5.563602448E-1,3.005471230E-1,7.332647020E-1
3.155710824E0,-1.875184178E-1,-8.429002762E-1,2.345148325E-1,8.947855829E-1
3.163712660E0,-8.040566742E-2,-9.619293213E-1,2.488991022E-1,9.968569875E-1
3.171714222E0,-1.314911246E-2,-9.231367111E-1,2.700415850E-1,9.619130648E-1
3.179714222E0,8.432722092E-2,-8.223381042E-1,2.839897871E-1,8.740716430E-1
3.187714535E0,1.489592791E-1,-6.387882233E-1,2.749061584E-1,7.112050738E-1
3.195713402E0,1.746504605E-1,-3.525381088E-1,3.036000729E-1,4.969496008E-1
3.203714027E0,1.977989972E-1,-1.258087158E-1,5.981289148E-1,6.424254626E-1
3.211714339E0,1.827744395E-1,2.206420898E-2,5.683994293E-1,5.974706991E-1
3.219713988E0,1.788742244E-1,6.205940247E-2,4.799215794E-1,5.159186757E-1
3.227713793E0,1.720554829E-1,2.528762817E-2,4.094365835E-1,4.448380259E-1
3.235713402E0,1.646685898E-1,-1.181697845E-2,2.074856758E-1,2.651522037E-1
3.243710433E0,1.891381443E-1,-1.160669327E-1,2.507591248E-1,3.348505773E-1
3.251711644E0,1.890589446E-1,-2.610683441E-1,2.467552423E-1,4.059410234E-1
3.259709378E0,1.624763310E-1,-3.606052399E-1,1.976959705E-1,4.421746193E-1
3.267709574E0,1.599406898E-1,-4.577474594E-1,1.991719007E-1,5.241976792E-1
3.275710472E0,1.667716950E-1,-5.393819809E-1,2.682139874E-1,6.250475683E-1
3.283710199E0,1.789937466E-1,-6.113157272E-1,3.056683540E-1,7.065258823E-1
3.291708793E0,1.590130329E-1,-6.736640930E-1,2.596653700E-1,7.392797571E-1
3.299708050E0,1.283396780E-1,-7.240571976E-1,2.836349010E-1,7.881488790E-1
3.307706800E0,5.307283998E-2,-7.576637268E-1,4.395129681E-1,8.775207680E-1
3.315705160E0,-5.374357104E-2,-7.481517792E-1,6.960428953E-1,1.023276682E0
3.323702386E0,-1.423515379E-1,-6.381139755E-1,6.563031673E-1,9.263839666E-1
3.331698988E0,-1.714127958E-1,-4.897241592E-1,4.847466946E-1,7.100644031E-1
3.339696918E0,-1.694981903E-1,-2.885618210E-1,3.364220858E-1,4.745285880E-1
3.347691566E0,-1.586760581E-1,-9.197330475E-2,3.778861761E-1,4.200418340E-1
3.355685511E0,-1.175537854E-1,4.260253906E-2,4.675148726E-1,4.839463037E-1
3.363676175E0,-3.924421966E-2,1.438474655E-1,5.459077358E-1,5.659041068E-1
3.371671839E0,1.525339484E-2,1.846609116E-1,5.155584812E-1,5.478438335E-1
3.379665433E0,7.698562741E-2,1.850852966E-1,4.941467047E-1,5.332582110E-1
3.387656527E0,1.450038254E-1,1.523351669E-1,4.983366728E-1,5.408988370E-1
3.395651019E0,2.177589536E-1,1.175079346E-1,5.046920776E-1,5.620864433E-1
3.403648480E0,2.644073367E-1,1.212368011E-1,4.659767151E-1,5.493122069E-1
3.411639964E0,2.653992474E-1,1.513404846E-1,3.674936295E-1,4.779040390E-1
3.419632269E0,1.835062504E-1,1.815061569E-1,2.544283867E-1,3.624263137E-1
3.427624339E0,1.050438434E-1,1.925525665E-1,1.701201200E-1,2.775816189E-1
3.435617308E0,5.675590038E-2,2.371845245E-1,8.791327477E-2,2.592421162E-1
3.443611488E0,2.670797706E-2,2.976713181E-1,-2.937400341E-2,3.003071123E-1
3.451609652E0,-8.816629648E-3,3.823328018E-1,-1.294167042E-1,4.037385139E-1
3.459606996E0,-9.027823806E-2,4.576034546E-1,-1.112353802E-1,4.795043188E-1
3.467605472E0,-2.036658376E-1,5.571022034E-1,-1.144520044E-1,6.041042126E-1
3.475602464E0,-3.900274932E-1,7.599210739E-1,-2.186637521E-1,8.817115858E-1
3.483595746E0,-4.486266971E-1,1.061298370E0,-1.964498758E-1,1.168851016E0
3.491591019E0,-3.452849686E-1,1.348652840E0,1.202868223E-1,1.397338581E0
3.499587035E0,-1.130214036E-1,1.628797531E0,3.778533936E-1,1.675866469E0
3.507582621E0,1.402919739E-1,1.745678902E0,1.559618711E-1,1.758237973E0
3.515579066E0,3.204369545E-1,1.699252129E0,-3.012512326E-1,1.755246405E0
3.523576332E0,4.202230275E-1,1.540320396E0,-1.076623321E0,1.925692626E0
3.531572230E0,2.432122231E-1,1.465816498E0,-1.851638198E0,2.374096503E0
3.539567152E0,-1.479250193E-2,1.490403175E0,-2.130330324E0,2.599966872E0
3.547561410E0,-3.045493364E-1,1.625505447E0,-1.791128278E0,2.437859464E0
3.555556058E0,-4.347802699E-1,1.889565468E0,-1.120649576E0,2.239497045E0
3.563550980E0,-4.783183336E-1,2.183459282E0,-6.485162377E-1,2.327414053E0
3.571548050E0,-4.036538899E-1,2.597830772E0,-2.791829109E-1,2.643785975E0
3.579544261E0,-1.798714101E-1,3.123565674E0,1.563400030E-1,3.132644001E0
3.587538480E0,3.603169322E-2,3.620121956E0,8.989298344E-2,3.621417127E0
3.595530082E0,2.267868817E-1,4.150338173E0,-4.014616013E-1,4.175872443E0
3.603521918E0,4.459674060E-1,4.377240181E0,-1.088157654E0,4.532461319E0
3.611516097E0,5.613429546E-1,4.080961227E0,-1.650077820E0,4.437578987E0
3.619508246E0,4.619859159E-1,3.247196198E0,-1.946941853E0,3.814222950E0
3.627504300E0,2.130018175E-1,2.249332428E0,-1.831775904E0,2.908654175E0
3.635501644E0,-8.766338229E-2,1.290534019E0,-1.641548872E0,2.089939143E0
3.643499144E0,-3.749675751E-1,1.101932526E-1,-1.454801083E0,1.506382895E0
3.651494144E0,-5.354959965E-1,-1.090758324E0,-1.462038636E0,1.901069872E0
3.659491097E0,-6.754840016E-1,-2.039442062E0,-1.537199616E0,2.641701199E0
3.667486957E0,-7.672656775E-1,-2.909683704E0,-1.789275646E0,3.500923195E0
3.675479691E0,-5.537129045E-1,-3.671048164E0,-2.091390848E0,4.261115850E0
3.683476878E0,-1.246609986E-1,-4.505989552E0,-2.274085760E0,5.048856133E0
3.691475941E0,2.242357731E-1,-5.117558479E0,-2.108150005E0,5.539312495E0
3.699477308E0,4.428259134E-1,-5.497682571E0,-1.893293262E0,5.831395015E0
3.707474339E0,7.844862342E-1,-5.718845367E0,-1.621311784E0,5.995770417E0
3.715472582E0,1.199109554E0,-5.506237030E0,-1.322498322E0,5.788394576E0
3.723468558E0,1.574231386E0,-4.601647377E0,-1.109296560E0,4.988376680E0
3.731463128E0,1.797234058E0,-3.277543068E0,-1.173309684E0,3.917779274E0
3.739460707E0,1.841486454E0,-1.946099281E0,-1.509419918E0,3.075178574E0
3.747458832E0,1.778517723E0,-8.577499390E-1,-1.754080296E0,2.641147086E0
3.755457972E0,1.524723291E0,2.592325211E-1,-1.825490236E0,2.392571257E0
3.763456605E0,1.306465864E0,1.144693375E0,-1.741139174E0,2.459418955E0
3.771451918E0,1.251028180E0,1.655291557E0,-1.615693688E0,2.629739101E0
3.779448597E0,1.278762341E0,1.903207779E0,-1.403289795E0,2.688243892E0
3.787449300E0,1.407613754E0,1.790159225E0,-1.350151539E0,2.647443240E0
3.795445746E0,1.526599765E0,1.466924667E0,-1.398708582E0,2.537471284E0
3.803442660E0,1.527567983E0,9.718799591E-1,-1.320495725E0,2.240920247E0
3.811440316E0,1.385995150E0,4.343643188E-1,-1.035757661E0,1.783941941E0
3.819438675E0,1.194847822E0,1.174449921E-2,-8.035361171E-1,1.439954702E0
3.827438168E0,1.057316303E0,-3.977098465E-1,-6.502543092E-1,1.303426850E0
3.835437464E0,9.805421829E-1,-6.673469543E-1,-5.385624170E-1,1.302637481E0
3.843437152E0,9.501563907E-1,-8.238506317E-1,-4.146420360E-1,1.324180897E0
3.851439964E0,8.942176700E-1,-9.177837372E-1,-2.659519315E-1,1.308695022E0
3.859441214E0,7.954688668E-1,-9.325914383E-1,-1.297983527E-1,1.232617184E0
3.867438714E0,7.010331750E-1,-8.995494843E-1,-5.020865798E-2,1.141559327E0
3.875435668E0,6.191048026E-1,-8.019094467E-1,-1.890110970E-2,1.013265399E0
3.883433558E0,6.080991030E-1,-7.007379532E-1,-2.898761630E-2,9.282556113E-1
3.891430082E0,6.223289967E-1,-6.329622269E-1,-2.513474226E-2,8.880125652E-1
3.899426253E0,5.584300160E-1,-5.123538971E-1,-1.961742342E-2,7.581130799E-1
3.907423324E0,5.251570344E-1,-4.225854874E-1,-1.758299768E-2,6.742978324E-1
3.915424730E0,5.582111478E-1,-3.468942642E-1,-3.854190931E-2,6.583470170E-1
3.923423871E0,6.137450337E-1,-2.647562027E-1,-2.089197934E-2,6.687415705E-1
3.931422308E0,6.985054016E-1,-1.942167282E-1,2.032265626E-2,7.252881799E-1
3.939419613E0,7.739228010E-1,-1.807651520E-1,3.970394284E-2,7.957442712E-1
3.947421253E0,8.131096363E-1,-1.788778305E-1,9.957827628E-2,8.384869659E-1
3.955419300E0,8.167983890E-1,-1.958208084E-1,1.928445846E-1,8.617972099E-1
3.963416293E0,8.170537949E-1,-2.245187759E-1,2.761126757E-1,8.911923441E-1
3.971414105E0,7.898019552E-1,-2.529973984E-1,2.735927701E-1,8.732970949E-1
3.979410902E0,7.190574408E-1,-2.741556168E-1,2.381926775E-1,8.055685302E-1
3.987406957E0,6.108604670E-1,-3.216638565E-1,2.584808469E-1,7.371773836E-1
3.995404574E0,4.924772978E-1,-4.267530441E-1,2.846738696E-1,7.111197238E-1
4.003403558E0,3.903430700E-1,-5.032596588E-1,3.338166475E-1,7.190768740E-1
4.011400394E0,3.194695711E-1,-6.039390564E-1,3.941571712E-1,7.887731400E-1
4.019398597E0,2.988901138E-1,-6.904764175E-1,3.678168356E-1,8.374856464E-1
4.027394261E0,2.701457739E-1,-7.819118500E-1,3.487696052E-1,8.977778777E-1
4.035393402E0,2.272375822E-1,-8.568086624E-1,3.449921310E-1,9.511979674E-1
4.043392660E0,2.133632898E-1,-9.558858871E-1,4.427288771E-1,1.074825838E0
4.051391371E0,2.181569338E-1,-1.031142235E0,5.994976759E-1,1.212536276E0
4.059392269E0,2.344037294E-1,-1.101715088E0,7.507046461E-1,1.353616899E0
4.067393441E0,2.479393482E-1,-1.117280960E0,6.703612804E-1,1.326338912E0
4.075394886E0,2.798253298E-1,-1.056200981E0,5.741285086E-1,1.234295861E0
4.083398636E0,3.218724728E-1,-1.016532898E0,5.879150629E-1,1.217614530E0
4.091402425E0,3.768606186E-1,-9.385051727E-1,6.937801242E-1,1.226436605E0
4.099404418E0,3.871833086E-1,-8.795671463E-1,7.070006132E-1,1.193062926E0
4.107405863E0,3.305597305E-1,-8.755435944E-1,6.083739400E-1,1.116228100E0
4.115403285E0,2.524493933E-1,-9.598121643E-1,4.813119769E-1,1.103010111E0
4.123400238E0,2.183729410E-1,-1.048654556E0,4.574447870E-1,1.164739822E0
4.131398714E0,2.385053635E-1,-1.137367249E0,5.527932048E-1,1.286883598E0
4.139401136E0,3.006833792E-1,-1.185168266E0,7.318588495E-1,1.425009365E0
4.147400121E0,4.074847698E-1,-1.103438377E0,8.823673725E-1,1.470439482E0
4.155402738E0,5.596891642E-1,-9.040660858E-1,8.805182576E-1,1.380543317E0
4.163400082E0,7.069853544E-1,-5.417156219E-1,8.680772781E-1,1.243721137E0
4.171395824E0,7.900365591E-1,-2.032222748E-1,8.803972006E-1,1.200231764E0
4.179396175E0,8.193475008E-1,2.405624390E-1,7.904495597E-1,1.163619835E0
4.187393246E0,7.923685312E-1,6.816997528E-1,4.747744203E-1,1.148030136E0
4.195390472E0,7.239893675E-1,1.131883621E0,1.977309585E-1,1.358093763E0
4.203390785E0,6.599780321E-1,1.713247299E0,5.376899242E-2,1.836757582E0
4.211389418E0,7.290384769E-1,2.360845566E0,2.394450307E-1,2.482422770E0
4.219387816E0,8.811646700E-1,2.928671837E0,6.666574478E-1,3.130176042E0
4.227384183E0,1.147266030E0,3.589015961E0,1.225472331E0,3.962201073E0
4.235377738E0,1.397040725E0,4.179183006E0,1.585568309E0,4.683088751E0
4.243371722E0,1.499534726E0,4.670482635E0,1.520432353E0,5.135535706E0
4.251368793E0,1.453728199E0,5.290534973E0,7.312339544E-1,5.535141288E0
4.259367269E0,1.242157578E0,5.861680984E0,2.876365185E-1,5.998749385E0
4.267361761E0,1.083181620E0,6.185548782E0,2.260935307E-2,6.279713954E0
4.275356253E0,1.004243374E0,5.975827217E0,-1.299911857E0,6.197482272E0
4.283351449E0,1.203270674E0,5.431324005E0,-2.670146942E0,6.170642224E0
4.291348207E0,1.598090887E0,4.817078590E0,-3.278256893E0,6.041945786E0
4.299344652E0,2.118711948E0,4.303049088E0,-3.091498375E0,5.706359082E0
4.307339457E0,2.267497540E0,4.066758156E0,-2.859963894E0,5.464381069E0
4.315331996E0,1.951603651E0,4.020405769E0,-3.145159006E0,5.464837100E0
4.323327074E0,1.230807066E0,4.104282379E0,-3.749172926E0,5.693532955E0
4.331325511E0,4.950921237E-1,4.148020744E0,-4.246467590E0,5.956817884E0
4.339322152E0,-3.837623000E-1,4.081843376E0,-4.799660206E0,6.312325795E0
4.347320316E0,-1.055647135E0,3.824069023E0,-5.047550678E0,6.419942571E0
4.355312269E0,-1.495194077E0,3.441493988E0,-5.056713104E0,6.296811385E0
4.363305980E0,-1.929750204E0,2.897981644E0,-4.874170303E0,5.989972421E0
4.371296058E0,-2.285171509E0,2.289040565E0,-4.537911892E0,5.572643885E0
4.379288636E0,-2.525863171E0,1.724625587E0,-4.248537540E0,5.234920191E0
4.387284847E0,-2.695703745E0,1.011019707E0,-4.068980217E0,4.984534034E0
4.395281488E0,-2.757141829E0,2.390527725E-1,-4.140694141E0,4.980394087E0
4.403280043E0,-2.750215530E0,-4.304790497E-1,-4.315308571E0,5.135259072E0
4.411275472E0,-2.777497053E0,-1.239032745E0,-4.525897503E0,5.452837814E0
4.419273050E0,-2.724345446E0,-1.980300426E0,-4.683038235E0,5.768404892E0
4.427271175E0,-2.682588577E0,-2.596487522E0,-4.824308395E0,6.100162327E0
4.435271566E0,-2.593670368E0,-3.286187649E0,-4.909288406E0,6.451919706E0
4.443274183E0,-2.224215269E0,-4.006205082E0,-4.845378399E0,6.668920794E0
4.451274691E0,-2.008723259E0,-4.433067799E0,-4.600885868E0,6.697403229E0
4.459274222E0,-1.654584527E0,-4.691400051E0,-4.058077335E0,6.419881312E0
4.467273558E0,-1.205499291E0,-4.010820389E0,-3.198228359E0,5.269589488E0
4.475274613E0,-9.718337059E-1,-3.090539455E0,-2.845837116E0,4.312155351E0
4.483274730E0,-1.025427103E0,-2.124502659E0,-2.895956039E0,3.735180541E0
4.491270824E0,-1.179199815E0,-1.213275909E0,-3.105101824E0,3.536128953E0
4.499268793E0,-1.334318519E0,-5.414085388E-1,-3.192586899E0,3.502304987E0
4.507267894E0,-1.562404275E0,4.904556274E-2,-3.019097567E0,3.399773919E0
4.515266019E0,-1.758827209E0,3.737020493E-1,-2.580430746E0,3.145115135E0
4.523267308E0,-1.841481924E0,3.727893829E-1,-2.143360615E0,2.850267062E0
4.531264925E0,-1.821829915E0,7.992172241E-2,-1.777656317E0,2.546667175E0
4.539261722E0,-1.744607210E0,-3.515834808E-1,-1.560930014E0,2.367227866E0
4.547261878E0,-1.626492381E0,-9.024963379E-1,-1.409165025E0,2.333607330E0
4.555258636E0,-1.453223467E0,-1.421883583E0,-1.254654169E0,2.389093647E0
4.563255472E0,-1.294761062E0,-1.806716919E0,-1.141686916E0,2.498815969E0
4.571252503E0,-1.150728106E0,-2.116800308E0,-1.028827906E0,2.619829303E0
4.579248714E0,-1.016121149E0,-2.364078045E0,-9.916270971E-1,2.757660511E0
4.587242933E0,-9.991416931E-1,-2.417018890E0,-7.456848025E-1,2.719615830E0
4.595237816E0,-9.699518085E-1,-2.371469498E0,-6.498999596E-1,2.643301732E0
4.603231175E0,-9.266521931E-1,-2.256222248E0,-5.913785100E-1,2.509771237E0
4.611223402E0,-8.652536869E-1,-2.150318623E0,-5.558041930E-1,2.383579750E0
4.619218519E0,-7.757441401E-1,-2.080089092E0,-4.367865026E-1,2.262594098E0
4.627211878E0,-7.340034246E-1,-2.002517700E0,-2.530429065E-1,2.147759037E0
4.635204886E0,-7.133309245E-1,-1.939221859E0,-1.599620283E-1,2.072440657E0
4.643198832E0,-6.764233708E-1,-1.830355167E0,-2.125277817E-1,1.962884784E0
4.651193050E0,-6.197048426E-1,-1.745471001E0,-2.450240850E-1,1.868352191E0
4.659188402E0,-5.681389570E-1,-1.694167137E0,-2.595908642E-1,1.805649905E0
4.667185277E0,-5.435410738E-1,-1.609304428E0,-2.746726274E-1,1.720680881E0
4.675184652E0,-5.366451740E-1,-1.586643219E0,-3.047696948E-1,1.702442162E0
4.683185707E0,-5.713856220E-1,-1.599883080E0,-1.676694155E-1,1.707108793E0
4.691184730E0,-5.898629427E-1,-1.646610260E0,1.791234016E-1,1.758223203E0
4.699181410E0,-5.796624422E-1,-1.724528313E0,4.298511147E-1,1.869432649E0
4.707177035E0,-6.207813025E-1,-1.759532452E0,4.997725487E-1,1.931604637E0
4.715171957E0,-6.723465919E-1,-1.744569778E0,4.389653206E-1,1.920485408E0
4.723170394E0,-7.205775976E-1,-1.607931137E0,2.725353241E-1,1.782961054E0
4.731168988E0,-7.083037496E-1,-1.478776932E0,1.978112459E-1,1.651546156E0
4.739169144E0,-6.835285425E-1,-1.313919067E0,2.042106390E-1,1.495090823E0
4.747164027E0,-6.996064186E-1,-1.194702148E0,2.890845537E-1,1.414331023E0
4.755157699E0,-6.914876699E-1,-1.130745888E0,3.472059965E-1,1.370143593E0
4.763151019E0,-6.733777523E-1,-1.071729660E0,4.426759481E-1,1.340896736E0
4.771150472E0,-6.519602537E-1,-1.027310371E0,5.016897917E-1,1.316097040E0
4.779149027E0,-6.376204491E-1,-9.687223434E-1,5.554319620E-1,1.285880041E0
4.787148753E0,-6.061749458E-1,-9.127187729E-1,5.438400507E-1,1.223219369E0
4.795149457E0,-6.173545122E-1,-8.641071320E-1,4.957472086E-1,1.171995317E0
4.803145628E0,-5.856286883E-1,-8.275709152E-1,4.488197565E-1,1.108726185E0
4.811142582E0,-5.636469126E-1,-8.222341537E-1,4.626667500E-1,1.099011996E0
4.819143675E0,-5.786550641E-1,-8.312692642E-1,4.917491674E-1,1.125907419E0
4.827145589E0,-5.859095454E-1,-8.356657028E-1,5.531245470E-1,1.160850519E0
4.835145238E0,-5.742544532E-1,-8.664245605E-1,5.911294222E-1,1.195781623E0
4.843144457E0,-5.435620546E-1,-8.923883438E-1,6.388789415E-1,1.224737917E0
4.851144222E0,-5.167083144E-1,-9.040327072E-1,7.105356455E-1,1.260604427E0
4.859144535E0,-5.278186202E-1,-9.443874359E-1,7.005088329E-1,1.288864908E0
4.867146136E0,-5.884969234E-1,-9.656314850E-1,5.971503258E-1,1.278812459E0
4.875148168E0,-6.770660281E-1,-9.246292114E-1,4.717991352E-1,1.239335309E0
4.883145941E0,-7.844246030E-1,-8.476409912E-1,3.695362806E-1,1.212589902E0
4.891143558E0,-8.645973206E-1,-7.970190048E-1,2.311060429E-1,1.198406368E0
4.899141293E0,-9.392106533E-1,-7.032928467E-1,1.591279507E-1,1.184085801E0
4.907137269E0,-1.067882061E0,-5.711402893E-1,-1.588851213E-1,1.221399938E0
4.915133285E0,-1.186053991E0,-4.651679993E-1,-6.155284643E-1,1.414913647E0
4.923133207E0,-1.264409065E0,-2.967138290E-1,-7.977892160E-1,1.524216853E0
4.931129378E0,-1.201539040E0,-1.328783035E-1,-5.189130306E-1,1.315531619E0
4.939126527E0,-1.137229681E0,7.160377502E-2,-8.189487457E-2,1.142420771E0
4.947124574E0,-1.031862974E0,3.547773361E-1,7.427096367E-2,1.093674692E0
4.955125433E0,-9.972972274E-1,7.140722275E-1,-1.353308558E-1,1.234024046E0
4.963123988E0,-1.061944723E0,1.096866608E0,-3.759861588E-1,1.572325838E0
4.971120394E0,-1.211697221E0,1.523240089E0,-4.031249881E-1,1.987707293E0
4.979119535E0,-1.345171094E0,1.818799973E0,-2.464196682E-1,2.275574931E0
4.987118441E0,-1.435631990E0,1.976342201E0,-2.526940107E-1,2.455773192E0
4.995119964E0,-1.518678784E0,2.050723076E0,-5.540517569E-1,2.611287754E0
5.003122113E0,-1.546138525E0,2.068420410E0,-1.010231018E0,2.772990090E0
5.011118949E0,-1.563258886E0,2.221075058E0,-1.394338846E0,3.053053157E0
5.019115902E0,-1.501066923E0,2.673833847E0,-1.141685128E0,3.272007684E0
5.027116957E0,-1.047398567E0,3.172561646E0,8.685278893E-2,3.342115282E0
5.035119066E0,-5.727417469E-1,3.543741226E0,7.379881144E-1,3.664800328E0
5.043118128E0,3.519552946E-2,4.007540703E0,5.545413494E-2,4.008078888E0
5.051116097E0,4.951812625E-1,4.617198944E0,-1.107168555E0,4.773840465E0
5.059112933E0,8.769447803E-1,5.096401215E0,-1.478622317E0,5.378537110E0
5.067109378E0,1.140710354E0,5.381018639E0,-1.193957806E0,5.628686964E0
5.075108793E0,1.276978374E0,5.329128265E0,-1.184418917E0,5.606525663E0
5.083105785E0,1.185028672E0,4.980566978E0,-1.516071081E0,5.339364373E0
5.091101058E0,1.176516891E0,4.196300507E0,-1.587301254E0,4.638173693E0
5.099096605E0,1.137224793E0,3.277852058E0,-1.455336571E0,3.762392707E0
5.107091722E0,9.647520781E-1,2.172665596E0,-1.437363863E0,2.777991584E0
5.115090433E0,6.944103241E-1,1.043390274E0,-1.483524561E0,1.942090133E0
5.123086488E0,4.591218233E-1,4.336166382E-2,-1.798820615E0,1.856994531E0
5.131083910E0,3.083093166E-1,-1.093057632E0,-2.467177391E0,2.716025387E0
5.139081214E0,3.067812920E-1,-2.200340748E0,-2.961216927E0,3.701948116E0
5.147075980E0,2.721010447E-1,-3.050911427E0,-3.187755346E0,4.420846487E0
5.155069457E0,3.402627707E-1,-4.001340866E0,-3.134268761E0,5.094128791E0
5.163063636E0,2.668994665E-1,-4.769721031E0,-2.545290470E0,5.412945374E0
5.171059027E0,2.380003929E-1,-5.331555367E0,-1.785818100E0,5.627723616E0
5.179055160E0,2.601358891E-1,-5.765961647E0,-8.666150570E-1,5.836523456E0
5.187053050E0,3.629156351E-1,-5.643539906E0,-1.097872257E-1,5.656262340E0
5.195049925E0,4.033221006E-1,-4.900256157E0,1.009202003E-2,4.916836480E0
5.203051957E0,3.246628046E-1,-3.626991272E0,-3.882694244E-1,3.662133909E0
5.211053480E0,3.474769592E-1,-2.260904312E0,-8.758180141E-1,2.449384768E0
5.219050316E0,3.286956549E-1,-1.092770576E0,-1.051481962E0,1.551709600E0
5.227048910E0,1.659512520E-1,1.325054169E-1,-1.044469833E0,1.065839921E0
5.235045199E0,-8.786797523E-2,1.147238731E0,-1.041383266E0,1.551888074E0
5.243044183E0,-2.947080135E-1,1.764909744E0,-9.423002005E-1,2.022297922E0
5.251040863E0,-4.961577058E-1,2.112234116E0,-5.759042501E-1,2.244854368E0
5.259039183E0,-5.326145887E-1,2.004381180E0,-3.488194942E-1,2.103068533E0
5.267037543E0,-5.380141139E-1,1.620552063E0,-5.872653723E-1,1.805693438E0
5.275035355E0,-3.664832115E-1,9.704494476E-1,-1.009050727E0,1.447157712E0
5.283032113E0,-1.619899869E-1,2.984066010E-1,-1.082963467E0,1.134943666E0
5.291026293E0,4.164195061E-2,-2.173137665E-1,-8.440896273E-1,8.726090900E-1
5.299021253E0,3.040752411E-1,-6.909065247E-1,-6.566160917E-1,1.000479020E0
5.307017347E0,5.344543457E-1,-1.065068245E0,-7.045390606E-1,1.384336340E0
5.315017503E0,6.789435148E-1,-1.308822632E0,-7.415481210E-1,1.650416491E0
5.323016605E0,7.274135351E-1,-1.467815399E0,-6.701070666E-1,1.769931066E0
5.331016136E0,7.495471239E-1,-1.515813828E0,-5.643318892E-1,1.782689802E0
5.339012386E0,7.557462454E-1,-1.477025986E0,-4.401905537E-1,1.716544748E0
5.347006410E0,7.385889292E-1,-1.423396111E0,-3.903816938E-1,1.650444777E0
5.354998402E0,6.712787151E-1,-1.350267410E0,-3.276542425E-1,1.543111952E0
5.362992035E0,5.752934217E-1,-1.248125076E0,-2.492735386E-1,1.396751955E0
5.370987347E0,4.434385300E-1,-1.174550056E0,-1.520640850E-1,1.264645820E0
5.378983714E0,3.470055461E-1,-1.108036995E0,-7.847332954E-2,1.163751217E0
5.386980785E0,1.899354458E-1,-1.017445564E0,-7.861864567E-2,1.038003777E0
5.394979261E0,1.058350205E-1,-9.218711853E-1,-1.310329437E-1,9.371324166E-1
5.402976605E0,8.717328310E-2,-8.498659134E-1,-1.242680550E-1,8.633155863E-1
5.410973480E0,9.330260754E-2,-7.894048691E-1,-4.452657700E-2,7.961457404E-1
5.418971253E0,1.357937455E-1,-7.690401077E-1,4.474735260E-2,7.822179710E-1
5.426969535E0,1.644557714E-1,-7.648677826E-1,9.089231491E-2,7.876102072E-1
5.434968636E0,1.995043755E-1,-7.291126251E-1,4.827845097E-2,7.574549655E-1
5.442967230E0,2.190598249E-1,-6.713151932E-1,1.488494873E-2,7.063093212E-1
5.450963832E0,2.808358669E-1,-6.657314301E-1,4.091286659E-2,7.236995121E-1
5.458961488E0,2.512888908E-1,-6.166763306E-1,9.055101871E-2,6.720381614E-1
5.466960238E0,1.662251949E-1,-5.239744186E-1,4.197239876E-3,5.497250437E-1
5.474960394E0,7.960200310E-2,-4.432058334E-1,-1.070042253E-1,4.628366817E-1
5.482963597E0,-6.787234545E-2,-3.502073288E-1,-2.051038742E-1,4.114844197E-1
5.490963675E0,-1.951926351E-1,-2.714443207E-1,-2.263808846E-1,4.037703418E-1
5.498964378E0,-2.731909752E-1,-2.023038864E-1,-2.821142673E-1,4.417563030E-1
5.506965472E0,-3.922092915E-1,-7.108211517E-2,-2.952195406E-1,4.960195284E-1
5.514967816E0,-4.341288209E-1,1.701965332E-1,-1.954445839E-1,5.056018972E-1
5.522967152E0,-4.185542464E-1,4.259357452E-1,-1.983988285E-2,5.974968931E-1
5.530967425E0,-4.114063978E-1,7.656984329E-1,2.269176245E-1,8.983545640E-1
5.538970121E0,-4.293327928E-1,1.076642990E0,2.940809727E-1,1.195813695E0
5.546975043E0,-4.664288759E-1,1.306173325E0,1.948237419E-2,1.387091999E0
5.554981136E0,-4.414283037E-1,1.485424995E0,-2.279791832E-1,1.566308039E0
5.562984378E0,-3.189008236E-1,1.497401237E0,-3.068792224E-1,1.561436217E0
5.570984222E0,-1.013488173E-1,1.387662888E0,-4.114357233E-1,1.450916685E0
5.578984378E0,1.938692927E-1,1.225562096E0,-5.258197784E-1,1.347617970E0
5.586987543E0,4.844646454E-1,1.140336990E0,-5.625846386E-1,1.360726247E0
5.594990589E0,7.102523446E-1,1.239736557E0,-6.483905911E-1,1.569017362E0
5.602990668E0,8.298187852E-1,1.705782890E0,-9.435817003E-1,2.118641289E0
5.610988793E0,9.625985026E-1,2.483613968E0,-2.021670341E-1,2.671292895E0
5.618985980E0,1.088509798E0,3.067633629E0,8.326998949E-1,3.359853981E0
5.626987582E0,8.717007041E-1,3.674554825E0,8.156753778E-1,3.863617683E0
5.634989886E0,4.868805408E-2,4.409865379E0,-7.371799350E-1,4.471321667E0
5.642992933E0,-5.561039448E-1,5.193873405E0,-1.876710653E0,5.550460830E0
5.650994027E0,-8.638953567E-1,5.970023155E0,-1.774561286E0,6.287810383E0
5.658996019E0,-9.750602841E-1,6.468046188E0,-8.870525956E-1,6.601001921E0
5.666999222E0,-1.169656038E0,6.616996765E0,-4.252966642E-1,6.733024483E0
5.675000746E0,-1.582256913E0,6.322140694E0,-8.384508491E-1,6.570844673E0
5.683000902E0,-1.987037182E0,5.267280579E0,-1.757459760E0,5.897561044E0
5.690999925E0,-2.117674351E0,4.047514915E0,-2.160715580E0,5.053277497E0
5.698998558E0,-2.105270147E0,2.524756432E0,-2.260425568E0,3.989496357E0
5.706995668E0,-2.020699501E0,1.020544052E0,-2.316151381E0,3.238717934E0
5.714994535E0,-1.961124778E0,-2.401390076E-1,-2.376667976E0,3.090667858E0
5.722993441E0,-1.907933831E0,-1.635865688E0,-2.626364470E0,3.635114631E0
5.730989769E0,-1.862705588E0,-2.748046875E0,-2.926501036E0,4.425589458E0
5.738985355E0,-1.803468585E0,-3.842830658E0,-3.035540819E0,5.218654469E0
5.746981957E0,-1.755889654E0,-4.760729313E0,-2.795336962E0,5.793237506E0
5.754979183E0,-1.695200920E0,-5.450650692E0,-2.353828669E0,6.174448034E0
5.762977035E0,-1.678981304E0,-5.947025299E0,-1.723453999E0,6.415323983E0
5.770975589E0,-1.380853772E0,-6.034502983E0,-1.168757796E0,6.299839536E0
5.778971957E0,-1.052050829E0,-5.301957607E0,-8.572211266E-1,5.472877988E0
5.786971527E0,-6.754395962E-1,-3.932842255E0,-8.556513786E-1,4.081128046E0
5.794970121E0,-5.282400250E-1,-2.314895630E0,-1.061056852E0,2.600696242E0
5.802965980E0,-4.476587474E-1,-8.080339432E-1,-1.128802896E0,1.458599734E0
5.810965003E0,-5.294044018E-1,7.566289902E-1,-1.076802015E0,1.418541162E0
5.818965277E0,-6.435586214E-1,2.018259048E0,-8.797758818E-1,2.293805329E0
5.826963480E0,-7.022796869E-1,2.778391838E0,-6.352354288E-1,2.935333374E0
5.834960902E0,-6.595029235E-1,3.025740623E0,-3.987746239E-1,3.122350337E0
5.842959574E0,-6.109507680E-1,2.568923950E0,-5.375857353E-1,2.694741087E0
5.850957386E0,-5.771166086E-1,1.767649651E0,-7.492722273E-1,2.004758773E0
5.858955277E0,-5.345402956E-1,7.870626450E-1,-8.873480558E-1,1.300994814E0
5.866956253E0,-5.137994289E-1,-1.145219803E-1,-9.147517085E-1,1.055403158E0
5.874957464E0,-5.110539198E-1,-7.727575302E-1,-7.957919836E-1,1.221316990E0
5.882961175E0,-5.373626947E-1,-1.363706589E0,-6.245187521E-1,1.593260179E0
5.890962972E0,-5.847074986E-1,-1.784880161E0,-4.975460768E-1,1.942995663E0
5.898965043E0,-6.214420795E-1,-2.015127182E0,-3.677439690E-1,2.140598852E0
5.906965472E0,-7.057067156E-1,-2.098096371E0,-2.400538921E-1,2.226579489E0
5.914966566E0,-8.044549823E-1,-1.991305828E0,-1.549849510E-1,2.153245702E0
5.922969027E0,-8.398366570E-1,-1.879880905E0,-1.002569199E-1,2.061390132E0
5.930968441E0,-8.598763943E-1,-1.689618111E0,8.062124252E-3,1.895853837E0
5.938967113E0,-8.475313187E-1,-1.482752800E0,1.218663454E-1,1.712225630E0
5.946965589E0,-8.565806150E-1,-1.300151825E0,1.528091431E-1,1.564441035E0
5.954961918E0,-8.211673498E-1,-1.148842812E0,1.365321875E-1,1.418730651E0
5.962960746E0,-7.653531432E-1,-1.093402863E0,1.037652493E-1,1.338679379E0
5.970961058E0,-8.322384953E-1,-1.047526360E0,1.013634205E-1,1.341717903E0
5.978957503E0,-8.786705732E-1,-1.099789619E0,1.055514812E-1,1.411644537E0
5.986954652E0,-9.692080617E-1,-1.178311348E0,1.230672598E-1,1.530662422E0
5.994954066E0,-1.062732458E0,-1.173050880E0,1.877062321E-1,1.593951779E0
6.002958480E0,-1.099697590E0,-1.208503723E0,2.253468037E-1,1.649423299E0
6.010958207E0,-1.139312983E0,-1.157888412E0,2.195379734E-1,1.639187777E0
6.018956839E0,-1.126905918E0,-1.069024086E0,1.939808130E-1,1.565361939E0
6.026954652E0,-1.058297038E0,-1.020906448E0,1.346250772E-1,1.476606416E0
6.034952152E0,-1.028778672E0,-9.440498352E-1,1.030231714E-1,1.400081934E0
6.042950746E0,-1.005473256E0,-9.195098877E-1,9.005379677E-2,1.365497927E0
6.050949808E0,-1.060069084E0,-9.162187576E-1,7.677221298E-2,1.403245256E0
6.058948714E0,-1.132163763E0,-9.583473206E-1,1.002621651E-1,1.486699995E0
6.066947738E0,-1.133672595E0,-1.019742012E0,-4.140174389E-2,1.525385665E0
6.074945316E0,-1.086047530E0,-9.902954102E-1,-1.876600981E-1,1.481688412E0
6.082942035E0,-1.011654854E0,-9.201202393E-1,-1.906890869E-1,1.380734995E0
6.090942113E0,-9.539088011E-1,-8.426904678E-1,-2.995642424E-1,1.307596253E0
6.098942386E0,-9.658809304E-1,-6.765966415E-1,-4.925254583E-1,1.278002470E0
6.106942308E0,-9.189838767E-1,-4.910402298E-1,-5.792059302E-1,1.192112152E0
6.114940746E0,-8.272811770E-1,-2.190599442E-1,-4.611579776E-1,9.721358369E-1
6.122935003E0,-6.742676497E-1,7.007503510E-2,-2.566601038E-1,7.248598367E-1
6.130934105E0,-5.774725676E-1,3.475751877E-1,-8.491408825E-2,6.793331140E-1
6.138931878E0,-5.529147387E-1,7.594213486E-1,-1.773464680E-2,9.395477692E-1
6.146932582E0,-5.664233565E-1,1.123566628E0,2.884435654E-2,1.258598181E0
6.154936449E0,-5.733289123E-1,1.442622185E0,9.934914112E-2,1.555549762E0
6.162936839E0,-5.685492754E-1,1.759881973E0,-5.764091015E-2,1.850339243E0
6.170935746E0,-5.505623817E-1,2.058829308E0,-4.168690443E-1,2.171560926E0
6.178934339E0,-5.286796093E-1,2.341014862E0,-6.562976837E-1,2.488087491E0
6.186933714E0,-5.556067228E-1,2.843530655E0,-7.499936223E-1,2.992800670E0
6.194931214E0,-3.808875680E-1,3.481112480E0,-1.566544771E-1,3.505390144E0
6.202926097E0,-1.372194290E-2,4.020479202E0,5.655254126E-1,4.060081317E0
6.210920824E0,3.457253575E-1,4.597298622E0,3.220298290E-1,4.621513156E0
6.218916214E0,5.279620886E-1,5.247012138E0,-8.871207237E-1,5.347603531E0
6.226912816E0,7.695730329E-1,5.925664902E0,-1.340472341E0,6.123937726E0
6.234907113E0,1.134524584E0,6.526815414E0,-1.076726437E0,6.711617190E0
6.242900043E0,1.352067709E0,6.739138603E0,-9.759355783E-1,6.942371818E0
6.250894964E0,1.410575271E0,6.588145256E0,-1.274801970E0,6.857003760E0
6.258889027E0,1.267161608E0,5.822082520E0,-1.513932824E0,6.147709818E0
6.266884496E0,1.050246596E0,4.625103951E0,-1.563785434E0,4.993999334E0
6.274881722E0,8.019833565E-1,3.550497055E0,-1.688428044E0,4.012480019E0
6.282880550E0,6.020917892E-1,2.382939339E0,-1.592263103E0,2.928517748E0
6.290881253E0,5.309039354E-1,1.191697121E0,-1.291873813E0,1.836011700E0
6.298878597E0,6.098091602E-1,1.224699020E-1,-1.364675045E0,1.499734666E0
6.306876644E0,7.385246754E-1,-1.013978958E0,-1.975617647E0,2.340221595E0
6.314873207E0,8.499497175E-1,-2.061391354E0,-2.764002800E0,3.551261792E0
6.322872543E0,9.346059561E-1,-2.904132843E0,-3.139564037E0,4.377709242E0
6.330871800E0,9.147179127E-1,-3.871093750E0,-3.070600271E0,5.025003652E0
6.338864808E0,7.834434509E-1,-4.621523380E0,-2.610480785E0,5.365339871E0
6.346859300E0,4.260942936E-1,-5.174582958E0,-1.882715344E0,5.522905232E0
6.354853753E0,2.583142519E-1,-5.656651020E0,-1.489385724E0,5.855142769E0
6.362852660E0,2.528288364E-1,-5.885632515E0,-1.284673095E0,6.029508892E0
6.370853168E0,3.478062153E-1,-5.646464348E0,-1.140597105E0,5.771004293E0
6.378851410E0,1.762002707E-1,-4.635084629E0,-1.163633108E0,4.782164579E0
6.386851644E0,1.846861839E-2,-3.547568798E0,-1.399830818E0,3.813805421E0
6.394852777E0,-1.637508869E-1,-2.284539223E0,-1.579054117E0,2.781967958E0
6.402852230E0,-2.823647261E-1,-1.039606094E0,-1.390991926E0,1.759366138E0
6.410849652E0,-3.618374467E-1,-3.218841553E-2,-1.059356689E0,1.119910276E0
6.418848246E0,-3.850038052E-1,9.797954559E-1,-7.962232828E-1,1.319923703E0
6.426848636E0,-4.019268751E-1,1.773831367E0,-8.178375959E-1,1.994211941E0
6.434845160E0,-4.416033626E-1,2.287964821E0,-8.621228933E-1,2.484562826E0
6.442842816E0,-4.348807931E-1,2.662934303E0,-9.047809839E-1,2.845868767E0
6.450843636E0,-3.938356638E-1,2.736287117E0,-8.971812725E-1,2.906425288E0
6.458844574E0,-3.781002760E-1,2.561479568E0,-8.627207279E-1,2.729180180E0
6.466847738E0,-3.348196745E-1,2.107608795E0,-7.765510082E-1,2.270936044E0
6.474850433E0,-2.572878003E-1,1.527317047E0,-6.358861923E-1,1.674289588E0
6.482848714E0,-1.307104230E-1,9.648895264E-1,-5.801880360E-1,1.133452765E0
6.490851175E0,4.027771950E-2,3.597269058E-1,-5.314171314E-1,6.429851546E-1
6.498855121E0,2.150336504E-1,-2.066640854E-1,-4.522408247E-1,5.417298944E-1
6.506859066E0,3.354790807E-1,-6.458110809E-1,-3.632295132E-1,8.133596038E-1
6.514863636E0,3.938043714E-1,-1.084734917E0,-1.890890598E-1,1.169395739E0
6.522868050E0,3.682999611E-1,-1.442036629E0,-3.983974457E-2,1.488859196E0
6.530865785E0,2.941913605E-1,-1.638690948E0,3.209757805E-2,1.665198738E0
6.538865394E0,1.485779285E-1,-1.768241405E0,8.935344219E-2,1.776720886E0
6.546865238E0,3.597235680E-2,-1.787841797E0,1.494325399E-1,1.794436509E0
6.554865121E0,2.351588011E-2,-1.737983704E0,1.558705568E-1,1.745117756E0
6.562867269E0,6.100040674E-2,-1.611502647E0,1.458934546E-1,1.619242642E0
6.570868988E0,1.412158012E-1,-1.480348587E0,1.489908695E-1,1.494514008E0
6.578867308E0,2.211409807E-1,-1.382784843E0,1.935806274E-1,1.413672775E0
6.586867543E0,2.933019996E-1,-1.309191704E0,2.508308887E-1,1.364890148E0
6.594866293E0,3.019421101E-1,-1.278613091E0,2.557889223E-1,1.338450016E0
6.602866566E0,2.567400932E-1,-1.240789413E0,2.419764996E-1,1.289971500E0
6.610867738E0,1.989715099E-1,-1.238756180E0,2.135493755E-1,1.272678227E0
6.618869808E0,1.974143386E-1,-1.270153046E0,1.662033796E-1,1.296103678E0
6.626871058E0,2.029942274E-1,-1.303467751E0,2.297745943E-1,1.339041148E0
6.634870043E0,2.365478277E-1,-1.307739258E0,2.775142193E-1,1.357626968E0
6.642870785E0,2.710279226E-1,-1.337992668E0,3.070944548E-1,1.399281072E0
6.650873441E0,3.376498818E-1,-1.382504463E0,2.672660351E-1,1.448018359E0
6.658875550E0,4.227364659E-1,-1.364829063E0,8.930110931E-2,1.431586246E0
6.666874300E0,4.760528207E-1,-1.313579559E0,8.610618114E-2,1.399832783E0
6.674871253E0,4.736488461E-1,-1.271740913E0,2.593910694E-1,1.381648257E0
6.682867347E0,3.945932388E-1,-1.268232346E0,2.509212494E-1,1.351694707E0
6.690864769E0,2.872223854E-1,-1.193082809E0,2.319526672E-2,1.227388003E0
6.698865043E0,2.284790874E-1,-1.065305710E0,-2.308686972E-1,1.113723172E0
6.706862777E0,2.250651717E-1,-8.319253922E-1,-1.873345375E-1,8.819571523E-1
6.714863675E0,2.841100693E-1,-6.030464172E-1,1.951372623E-2,6.669065139E-1
6.722863558E0,3.428454399E-1,-3.020792007E-1,2.392451763E-1,5.157839602E-1
6.730861996E0,3.495694995E-1,3.281116486E-2,3.733606339E-1,5.125168977E-1
6.738861839E0,3.260638714E-1,3.442487717E-1,3.565870523E-1,5.932783419E-1
6.746860628E0,3.059828877E-1,7.257099152E-1,2.696164846E-1,8.324502732E-1
6.754859300E0,3.591299653E-1,1.095815659E0,2.007530928E-1,1.170507622E0
6.762857386E0,4.561772346E-1,1.380249023E0,1.652872562E-1,1.463046449E0
6.770853714E0,6.165542603E-1,1.671460152E0,1.022518873E-1,1.784481337E0
6.778853050E0,7.596139312E-1,1.888092041E0,-3.921902180E-2,2.035544893E0
6.786852933E0,8.570055366E-1,2.095091820E0,-1.318174601E-1,2.267431160E0
6.794853597E0,9.063712955E-1,2.357520103E0,-3.048191071E-1,2.544076385E0
6.802855160E0,8.611036539E-1,2.826579094E0,-4.161475897E-1,2.983995257E0
6.810851996E0,7.828019261E-1,3.370805740E0,6.619766951E-1,3.523254652E0
6.818852777E0,6.261457801E-1,3.967739105E0,1.903132200E0,4.444876187E0
6.826852543E0,2.495592833E-1,4.537172318E0,7.835888863E-1,4.611097919E0
6.834852191E0,-1.474403739E-1,5.151194572E0,-8.526664972E-1,5.223369061E0
6.842855160E0,-4.320861697E-1,5.998950958E0,-1.266282439E0,6.146347067E0
6.850855003E0,-5.088543892E-1,6.499657631E0,-4.815835953E-1,6.537308687E0
6.858854222E0,-5.043208599E-1,6.551527023E0,-6.670963764E-2,6.571247678E0
6.866854535E0,-5.760314465E-1,6.208319664E0,-5.987017155E-1,6.263664185E0
6.874852543E0,-7.904452085E-1,5.479249001E0,-1.285808563E0,5.683333256E0
6.882850863E0,-1.067442417E0,4.592485428E0,-1.475978851E0,4.940533300E0
6.890849925E0,-1.388419271E0,3.371244431E0,-1.333714724E0,3.882240596E0
6.898851214E0,-1.596506119E0,2.028413773E0,-1.290985346E0,2.886163090E0
6.906853793E0,-1.743049860E0,8.655223846E-1,-1.775443554E0,2.634302873E0
6.914856644E0,-1.904827118E0,-3.589696884E-1,-2.232882738E0,2.956854902E0
6.922858285E0,-1.990113258E0,-1.474358559E0,-2.508228540E0,3.524981468E0
6.930861722E0,-1.906868339E0,-2.420802593E0,-2.689632654E0,4.090300218E0
6.938864847E0,-1.840490222E0,-3.553344727E0,-2.620536804E0,4.783395880E0
6.946866918E0,-1.679721594E0,-4.624347210E0,-2.257000208E0,5.412956834E0
6.954868089E0,-1.593417406E0,-5.408412933E0,-1.869009256E0,5.939958341E0
6.962873285E0,-1.644145012E0,-5.927233696E0,-1.532770157E0,6.339140041E0
6.970877308E0,-1.577150822E0,-5.661686420E0,-1.448042631E0,6.053009607E0
6.978879144E0,-1.406835794E0,-4.856195927E0,-1.554409027E0,5.289424662E0
6.986878910E0,-9.475380778E-1,-3.651616573E0,-1.515840888E0,4.065698661E0
6.994879535E0,-4.716682434E-1,-2.305312157E0,-1.253278375E0,2.666016083E0
7.002881605E0,-2.250075340E-5,-1.146806717E0,-1.021754980E0,1.535952111E0
7.010883675E0,4.185933471E-1,1.836585999E-1,-8.238813877E-1,9.421949971E-1
7.018885902E0,6.843930483E-1,1.341508865E0,-8.212091923E-1,1.715349649E0
7.026884222E0,9.008300900E-1,2.178797722E0,-8.316050768E-1,2.500044273E0
7.034883558E0,1.064854503E0,2.731349945E0,-8.331562281E-1,3.047677302E0
7.042880863E0,9.655933976E-1,2.728590012E0,-9.454784393E-1,3.044914373E0
7.050878207E0,6.495823860E-1,2.264431953E0,-9.649155140E-1,2.545716264E0
7.058875433E0,3.020537496E-1,1.375358582E0,-8.699183464E-1,1.655175406E0
7.066874925E0,-1.711654663E-2,4.656667709E-1,-7.142324448E-1,8.527992160E-1
7.074870550E0,-2.628296912E-1,-2.593650818E-1,-6.171278954E-1,7.191637723E-1
7.082867230E0,-4.444859624E-1,-9.510402679E-1,-5.286425352E-1,1.175375809E0
7.090864066E0,-5.075307488E-1,-1.393636703E0,-4.377835989E-1,1.546436291E0
7.098860238E0,-5.353115797E-1,-1.721404076E0,-3.318457603E-1,1.833006298E0
7.106859066E0,-4.802703857E-1,-1.867260933E0,-2.755993605E-1,1.947633960E0
7.114854925E0,-3.729577065E-1,-1.896068096E0,-2.465654612E-1,1.948067299E0
7.122849769E0,-2.888897061E-1,-1.776762009E0,-1.369248629E-1,1.805294689E0
7.130847543E0,-1.516501009E-1,-1.617018700E0,-1.873159409E-2,1.624222306E0
7.138846878E0,-9.059709311E-2,-1.416767120E0,1.434075832E-2,1.419733272E0
7.146842582E0,1.694351435E-2,-1.242986679E0,3.850376606E-2,1.243698318E0
7.154844730E0,-1.376724243E-2,-1.052441597E0,9.388780594E-2,1.056710827E0
7.162844925E0,-6.097760797E-2,-9.791536331E-1,1.994541883E-1,1.001120412E0
7.170844066E0,-1.701905727E-1,-9.607810974E-1,2.565793991E-1,1.008909380E0
7.178845394E0,-3.054182529E-1,-9.639883041E-1,2.517844439E-1,1.042088847E0
7.186845355E0,-4.201523066E-1,-1.026977539E0,2.328249216E-1,1.133762881E0
7.194847582E0,-5.420566797E-1,-1.063568115E0,2.186014652E-1,1.213585259E0
7.202847347E0,-6.232409477E-1,-1.114486694E0,1.446173191E-1,1.285077445E0
7.210846058E0,-6.504130363E-1,-1.098078728E0,1.894357204E-1,1.290232499E0
7.218846293E0,-6.660077572E-1,-1.059565544E0,2.604472637E-1,1.278310702E0
7.226848050E0,-6.506757140E-1,-1.035025597E0,3.152993917E-1,1.262565078E0
7.234853363E0,-6.324874759E-1,-1.063085556E0,3.003793955E-1,1.272956829E0
7.242856957E0,-5.587967634E-1,-1.079203606E0,1.779267788E-1,1.228247607E0
7.250857582E0,-5.272598267E-1,-1.080860138E0,8.829963207E-2,1.205843434E0
7.258856918E0,-5.118340254E-1,-1.072574615E0,9.475874901E-2,1.192212060E0
7.266858324E0,-4.881713390E-1,-1.104670525E0,8.960008621E-2,1.211047645E0
7.274856332E0,-4.806447327E-1,-1.127003670E0,-5.371570587E-4,1.225217091E0
7.282854925E0,-4.726610184E-1,-1.098958969E0,-1.472699642E-2,1.196384611E0
7.290855277E0,-4.800918102E-1,-1.001532555E0,5.468690395E-2,1.112001017E0
7.298852425E0,-4.318941534E-1,-7.964916229E-1,6.478524208E-2,9.083658914E-1
7.306851253E0,-3.420604467E-1,-5.531530380E-1,7.219970226E-2,6.543671979E-1
7.314853949E0,-1.999298334E-1,-1.849975586E-1,6.503081322E-2,2.800447136E-1
7.322856214E0,-2.272099257E-2,2.388048172E-1,1.616498232E-1,2.892657075E-1
7.330855628E0,9.787029028E-2,6.298360825E-1,2.823725939E-1,6.971415683E-1
7.338854847E0,1.779314280E-1,1.016607285E0,2.516020536E-1,1.062286947E0
7.346854925E0,1.263163686E-1,1.303278923E0,1.594617367E-1,1.319060204E0
7.354858089E0,-3.413027525E-2,1.446510315E0,3.894782066E-2,1.447437011E0
7.362859300E0,-2.095870376E-1,1.487052917E0,-2.444577217E-1,1.521516573E0
7.370859691E0,-4.029611945E-1,1.491945267E0,-4.975712299E-1,1.623531808E0
7.378859808E0,-5.232315660E-1,1.585911751E0,-4.151965380E-1,1.720835703E0
7.386857855E0,-5.721987486E-1,1.910946846E0,-1.550089121E-1,2.000789099E0
7.394854535E0,-3.825064301E-1,2.473290443E0,4.059832096E-1,2.535409070E0
7.402854105E0,3.569000959E-2,3.107222557E0,1.112863779E0,3.300692592E0
7.410853675E0,5.614266396E-1,3.759227753E0,1.191469789E0,3.983289272E0
7.418854847E0,1.117781162E0,4.479729652E0,1.047964096E-1,4.618267508E0
7.426854691E0,1.464653015E0,5.186565399E0,-7.932410240E-1,5.447467340E0
7.434855589E0,1.822356224E0,5.942995071E0,-8.303583860E-1,6.271336993E0
7.442857308E0,1.990172267E0,6.354738235E0,-3.792079687E-1,6.669878738E0
7.450856136E0,2.040006161E0,6.449471474E0,-2.886419296E-1,6.770570256E0
7.458856800E0,2.030517340E0,6.103943825E0,-5.950511694E-1,6.460279930E0
7.466856214E0,1.889615536E0,5.195736885E0,-7.962877750E-1,5.585732080E0
7.474854652E0,1.755529284E0,3.822953224E0,-1.297634125E0,4.402352637E0
7.482849496E0,1.476069093E0,2.548832893E0,-1.806807995E0,3.455413755E0
7.490848441E0,1.161363125E0,1.460054398E0,-1.779028654E0,2.577880157E0
7.498848949E0,8.996863365E-1,1.397390366E-1,-1.434206367E0,1.698796752E0
7.506849925E0,6.931641102E-1,-1.286116600E0,-1.360715151E0,1.996526512E0
7.514852503E0,5.259495974E-1,-2.451648712E0,-1.595480680E0,2.971996465E0
7.522853441E0,3.803905249E-1,-3.651149273E0,-2.115096569E0,4.236652152E0
7.530856097E0,2.619041204E-1,-4.629676342E0,-2.506348848E0,5.271079714E0
7.538858910E0,2.674310207E-1,-5.338030815E0,-2.567471981E0,5.929418581E0
7.546860863E0,3.252106905E-1,-6.010243893E0,-2.340605259E0,6.458113240E0
7.554859378E0,5.090665817E-1,-6.476167202E0,-1.883081555E0,6.763570548E0
7.562856449E0,7.512010336E-1,-6.672349930E0,-1.402973890E0,6.859511084E0
7.570854652E0,8.362873793E-1,-6.287550926E0,-8.000102043E-1,6.393175233E0
7.578851253E0,8.301222324E-1,-5.253831863E0,-3.319528103E-1,5.329356888E0
7.586846136E0,8.480859995E-1,-4.191068649E0,-1.862235069E-1,4.280068397E0
7.594843011E0,9.610239267E-1,-2.920704842E0,-2.572178841E-1,3.085489394E0
7.602838519E0,9.302858114E-1,-1.508093357E0,-4.680395126E-1,1.832713357E0
7.610832152E0,7.593959570E-1,-2.056283951E-1,-6.957703829E-1,1.050267434E0
7.618826332E0,4.876438379E-1,1.329910278E0,-8.765257597E-1,1.665759667E0
7.626820082E0,1.601533890E-1,2.706350327E0,-9.790859222E-1,2.882462565E0
7.634817230E0,-5.962479115E-2,3.655347824E0,-1.033028126E0,3.798982751E0
7.642813793E0,-1.877542734E-1,4.391432762E0,-1.139455199E0,4.540736892E0
7.650810316E0,-1.495131254E-1,4.550905228E0,-1.241124392E0,4.719479031E0
7.658805277E0,1.967114210E-2,4.127178192E0,-1.195457935E0,4.296871706E0
7.666799769E0,1.283963919E-1,3.077017784E0,-8.871317506E-1,3.204922280E0
7.674794730E0,1.069678068E-1,1.946465492E0,-4.679712057E-1,2.004786042E0
7.682789339E0,1.431719065E-1,1.010759354E0,-2.447456121E-1,1.049777634E0
7.690786683E0,2.039796710E-1,2.766799927E-2,-1.509565115E-1,2.552667090E-1
7.698781136E0,2.842527032E-1,-8.092298508E-1,-1.150505543E-1,8.653838343E-1
7.706772699E0,3.537429571E-1,-1.404293060E0,-4.342401028E-2,1.448812867E0
7.714765785E0,4.565981030E-1,-1.939397335E0,9.147763252E-3,1.992442605E0
7.722759769E0,5.412056446E-1,-2.273328304E0,2.317786217E-2,2.336977180E0
7.730753168E0,5.967489481E-1,-2.523508549E0,4.659140110E-2,2.593525682E0
7.738746996E0,6.207754016E-1,-2.630182266E0,5.858957767E-2,2.703082239E0
7.746740824E0,6.258900166E-1,-2.605266094E0,1.268752813E-1,2.682395771E0
7.754737738E0,6.056742668E-1,-2.491947174E0,2.110711336E-1,2.573167903E0
7.762732699E0,6.035439968E-1,-2.314035892E0,2.803798914E-1,2.407828971E0
7.770725550E0,5.955692530E-1,-2.085939884E0,2.441812754E-1,2.182996205E0
7.778721136E0,5.863795280E-1,-1.807530880E0,2.262846231E-1,1.913691084E0
7.786718675E0,6.373693943E-1,-1.579315186E0,2.364181280E-1,1.719409704E0
7.794712347E0,6.221101880E-1,-1.401218414E0,3.049399853E-1,1.563145075E0
7.802704105E0,6.393939257E-1,-1.229973793E0,3.728047609E-1,1.435494170E0
7.810694886E0,6.990361810E-1,-1.118098259E0,4.709364176E-1,1.400205845E0
7.818688949E0,7.647458315E-1,-1.063356400E0,5.993793011E-1,1.440423051E0
7.826681996E0,9.218750596E-1,-1.077730179E0,6.364378929E-1,1.554480349E0
7.834677543E0,1.050544739E0,-1.065361977E0,5.765933990E-1,1.603465103E0
7.842671371E0,1.117616057E0,-1.035717964E0,6.411587000E-1,1.653136967E0
7.850667933E0,1.157887459E0,-9.984903336E-1,6.985014677E-1,1.680949319E0
7.858666214E0,1.055802345E0,-9.487943649E-1,6.209795475E-1,1.549369206E0
7.866665746E0,9.346336126E-1,-9.056110382E-1,6.013991833E-1,1.433649999E0
7.874662738E0,8.285089731E-1,-8.714361191E-1,4.605231285E-1,1.287598377E0
7.882658753E0,6.979171038E-1,-8.632030487E-1,1.871091723E-1,1.125707613E0
7.890655121E0,6.295884848E-1,-8.142805099E-1,-3.964173794E-2,1.030051395E0
7.898651605E0,5.830091834E-1,-7.028303146E-1,-6.084966660E-2,9.151900573E-1
7.906652933E0,5.992715955E-1,-5.025053024E-1,1.014915109E-1,7.886308077E-1
7.914652855E0,6.380119324E-1,-2.206335068E-1,1.876010299E-1,7.006657667E-1
7.922651058E0,6.800613403E-1,1.642313004E-1,2.200393677E-1,7.333980297E-1
7.930647894E0,6.992440224E-1,6.185779572E-1,2.153881788E-1,9.581090541E-1
7.938644300E0,7.394203544E-1,1.003541946E0,1.372791529E-1,1.254067169E0
7.946639183E0,8.045047522E-1,1.467621803E0,1.125759482E-1,1.677442994E0
7.954631839E0,9.559410214E-1,1.811230659E0,9.213662148E-2,2.050089973E0
7.962628480E0,1.109302759E0,2.127757072E0,9.368515015E-2,2.401391196E0
7.970624144E0,1.208866358E0,2.314401627E0,-1.539814472E-2,2.611139572E0
7.978619378E0,1.283115745E0,2.395361900E0,-1.483644843E-1,2.721425485E0
7.986615511E0,1.299192429E0,2.570036888E0,-3.900669813E-1,2.906052791E0
7.994610824E0,1.231387258E0,3.035002708E0,-3.215667605E-1,3.291042570E0
8.002604339E0,1.171628118E0,3.594005585E0,5.245584249E-1,3.816379191E0
8.010594613E0,1.054316759E0,4.198502541E0,1.451205969E0,4.565633163E0
8.018588714E0,7.038701773E-1,4.661056519E0,7.232347727E-1,4.769061714E0
8.026587582E0,2.226444185E-1,5.097138405E0,-9.507389069E-1,5.189826098E0
8.034588050E0,-2.109213769E-1,5.689724922E0,-1.951138258E0,6.018670785E0
8.042585628E0,-3.450067341E-1,6.121518135E0,-1.458236933E0,6.302259030E0
8.050584066E0,-3.593490124E-1,6.147742271E0,-7.519302368E-1,6.203971779E0
8.058582347E0,-3.769912124E-1,5.599469185E0,-7.933455706E-1,5.667942724E0
8.066581722E0,-5.645416379E-1,4.638999939E0,-1.524048090E0,4.915460332E0
8.074579964E0,-8.532457948E-1,3.786512375E0,-2.053600788E0,4.391239068E0
8.082575589E0,-1.153629541E0,2.815043449E0,-2.050366879E0,3.668696646E0
8.090571683E0,-1.357651353E0,1.705677032E0,-1.584916592E0,2.695275856E0
8.098571488E0,-1.483879805E0,6.686325073E-1,-1.486986995E0,2.204563228E0
8.106570160E0,-1.675769687E0,-4.449491501E-1,-1.990843773E0,2.640008090E0
8.114567503E0,-1.814429045E0,-1.448101997E0,-2.805937290E0,3.641762792E0
8.122563089E0,-1.818529010E0,-2.172744751E0,-3.240949631E0,4.304837049E0
8.130560355E0,-1.731611848E0,-2.930132389E0,-3.127988815E0,4.622604184E0
8.138555628E0,-1.626934886E0,-3.597987652E0,-2.437618971E0,4.640519207E0
8.146554339E0,-1.495732069E0,-4.042010307E0,-1.676964998E0,4.624637645E0
8.154551761E0,-1.359767914E0,-4.215672970E0,-1.137195587E0,4.573191574E0
8.162548871E0,-1.159200191E0,-3.979545116E0,-1.057675958E0,4.277756754E0
8.170546019E0,-8.935029507E-1,-3.413427353E0,-1.307706118E0,3.762968125E0
8.178545238E0,-4.598620832E-1,-2.432147980E0,-1.559643507E0,2.925628958E0
8.186544066E0,1.482449844E-2,-1.293469429E0,-1.592804551E0,2.051903815E0
8.194539261E0,4.689594507E-1,-3.292255402E-1,-1.481754303E0,1.588681289E0
8.202536800E0,8.854115605E-1,5.326519012E-1,-1.244564295E0,1.617594499E0
8.210533832E0,1.219346166E0,1.074335098E0,-9.365438223E-1,1.875663964E0
8.218533441E0,1.487474203E0,1.352529526E0,-6.637200117E-1,2.117177337E0
8.226532464E0,1.455434561E0,1.240245819E0,-6.027371883E-1,2.004941787E0
8.234532074E0,1.251952171E0,9.029769897E-1,-6.929281950E-1,1.692010983E0
8.242533089E0,9.699712396E-1,4.368953705E-1,-7.089473009E-1,1.278408403E0
8.250538480E0,6.698154807E-1,-8.876705170E-2,-5.924518108E-1,8.986275735E-1
8.258540863E0,4.270454049E-1,-5.125827789E-1,-5.470645428E-1,8.627795182E-1
8.266544691E0,1.999115944E-1,-9.424266815E-1,-5.650985241E-1,1.116901534E0
8.274546488E0,3.880071640E-2,-1.208555222E0,-5.160700083E-1,1.314701286E0
8.282547972E0,6.251901388E-3,-1.366797447E0,-3.828965425E-1,1.419430911E0
8.290546097E0,-7.465809584E-3,-1.448482513E0,-1.414023638E-1,1.455387219E0
8.298543089E0,1.543605328E-2,-1.487222672E0,6.278669834E-2,1.488627460E0
8.306539886E0,1.767155528E-2,-1.459214211E0,1.489468813E-1,1.466902713E0
8.314538597E0,-2.230198681E-2,-1.402727127E0,1.551285982E-1,1.411455155E0
8.322535277E0,-6.592004001E-2,-1.289153099E0,1.537572145E-1,1.299962479E0
8.330532074E0,-1.347080469E-1,-1.173487663E0,1.994738579E-1,1.197918768E0
8.338527543E0,-1.971015036E-1,-1.026883125E0,2.747886181E-1,1.081132157E0
8.346525472E0,-2.254255563E-1,-8.995676041E-1,3.268803358E-1,9.833052983E-1
8.354522191E0,-2.441857755E-1,-8.344678879E-1,3.788770437E-1,9.484256234E-1
8.362521644E0,-2.629210055E-1,-8.387527466E-1,5.216792822E-1,1.022146222E0
8.370519691E0,-2.595090270E-1,-9.410953522E-1,7.356969118E-1,1.222397375E0
8.378513910E0,-2.781465054E-1,-1.098506927E0,8.732919693E-1,1.430636855E0
8.386511957E0,-3.451730609E-1,-1.282507896E0,9.333949089E-1,1.623328988E0
8.394513949E0,-4.193344116E-1,-1.411882401E0,9.312608242E-1,1.742555590E0
8.402514105E0,-5.491815805E-1,-1.426607132E0,8.853011131E-1,1.766512490E0
8.410510160E0,-6.024214029E-1,-1.410310745E0,8.304228783E-1,1.743986841E0
8.418507191E0,-7.274122238E-1,-1.343770027E0,7.231365442E-1,1.690494866E0
8.426505316E0,-7.303007841E-1,-1.289092064E0,7.494375706E-1,1.660347631E0
8.434503832E0,-7.349460125E-1,-1.253233910E0,7.858725786E-1,1.651767715E0
8.442501644E0,-6.978919506E-1,-1.284202576E0,7.898898125E-1,1.661371526E0
8.450498011E0,-6.338078976E-1,-1.377462387E0,7.030537128E-1,1.671346643E0
8.458494691E0,-5.276409388E-1,-1.482911110E0,5.165694952E-1,1.656585151E0
8.466489300E0,-4.848179221E-1,-1.545517921E0,4.078066349E-1,1.670323416E0
8.474486644E0,-4.027242064E-1,-1.541270256E0,4.626494646E-1,1.658838544E0
8.482480277E0,-3.274371922E-1,-1.458233833E0,5.162365437E-1,1.581189804E0
8.490478246E0,-2.419297993E-1,-1.239007950E0,5.185704231E-1,1.364765918E0
8.498475199E0,-1.434371471E-1,-9.120025635E-1,5.402327776E-1,1.069660855E0
8.506473207E0,2.629733086E-2,-4.196205139E-1,6.473386288E-1,7.718939212E-1
8.514470668E0,1.462692916E-1,1.160812378E-2,6.884005070E-1,7.038641291E-1
8.522469300E0,2.967487872E-1,4.731550217E-1,5.269623995E-1,7.678703586E-1
8.530464847E0,4.280841053E-1,8.573064804E-1,1.898508072E-1,9.768693523E-1
8.538466097E0,3.341865540E-1,1.111189842E0,1.046096087E-1,1.165060809E0
8.546467894E0,6.161332130E-3,1.260598183E0,2.759509087E-1,1.290462957E0
8.554469769E0,-3.505709767E-1,1.244874001E0,3.229621649E-1,1.333010070E0
8.562468988E0,-6.545404792E-1,1.225167274E0,2.411510944E-1,1.409826918E0
8.570466449E0,-8.521670103E-1,1.289158821E0,2.508519888E-1,1.565581617E0
8.578463832E0,-8.429536819E-1,1.489584923E0,2.295941114E-1,1.726889576E0
8.586461058E0,-6.794621944E-1,1.895968437E0,6.912922859E-2,2.015228036E0
8.594457074E0,-3.055506349E-1,2.647428513E0,5.251641273E-1,2.716254090E0
8.602452816E0,2.551105022E-1,3.413388252E0,1.670335293E0,3.808716414E0
8.610447113E0,7.551795840E-1,3.893424034E0,1.587975025E0,4.272085158E0
8.618446449E0,1.271772623E0,4.316931725E0,-3.843080997E-2,4.500531307E0
8.626443832E0,1.467332721E0,4.745713234E0,-9.966239929E-1,5.066371364E0
8.634441957E0,1.540671706E0,4.942308426E0,-8.650881052E-1,5.248662621E0
8.642439925E0,1.553958416E0,4.822403908E0,-9.602173567E-1,5.156780350E0
8.650436214E0,1.421061993E0,4.481763840E0,-1.189821124E0,4.849876144E0
8.658434144E0,1.396638155E0,3.998536110E0,-6.687293053E-1,4.287900190E0
8.666429730E0,1.498068571E0,3.098526001E0,-2.954605818E-1,3.454326241E0
8.674426410E0,1.700265288E0,2.067807198E0,-5.343219042E-1,2.729877022E0
8.682422230E0,1.745740175E0,1.179628372E0,-8.773850203E-1,2.282309429E0
8.690420550E0,1.567011118E0,2.504997253E-1,-1.504039288E0,2.186414447E0
8.698417660E0,1.357432604E0,-5.918750763E-1,-2.085720062E0,2.557961602E0
8.706411293E0,1.225296259E0,-1.310837746E0,-2.484535933E0,3.064729241E0
8.714406605E0,1.178659081E0,-2.114753246E0,-2.808079720E0,3.707658322E0
8.722401996E0,1.225808263E0,-2.895133495E0,-2.755933046E0,4.180857664E0
8.730399066E0,1.264489055E0,-3.588841915E0,-2.266383410E0,4.428906481E0
8.738397308E0,1.269062281E0,-4.196389675E0,-1.462857723E0,4.621705107E0
8.746395003E0,1.274389982E0,-4.499667645E0,-8.928585052E-1,4.761121197E0
8.754394730E0,1.299266815E0,-4.366545677E0,-7.815817595E-1,4.622303047E0
8.762394418E0,1.244460821E0,-3.660310745E0,-9.980083704E-1,3.992815823E0
8.770392347E0,1.194235325E0,-2.600244999E0,-1.194134235E0,3.100552957E0
8.778391800E0,1.182279587E0,-1.597093105E0,-1.208786607E0,2.325866821E0
8.786391175E0,1.099500537E0,-4.127788544E-1,-1.086155653E0,1.599694320E0
8.794389964E0,9.116582870E-1,5.818004608E-1,-9.066334963E-1,1.411239492E0
8.802387738E0,6.132877469E-1,1.638849258E0,-8.073079586E-1,1.927094936E0
8.810385941E0,2.817170620E-1,2.430424690E0,-8.658956289E-1,2.595400531E0
8.818383675E0,1.092729568E-1,2.827569962E0,-6.795253754E-1,2.910128382E0
8.826381449E0,-4.929846525E-2,2.787560463E0,-3.613001108E-1,2.811309560E0
8.834380003E0,-1.241387129E-1,2.202924728E0,-1.066427231E-1,2.208995348E0
8.842378089E0,-1.511143446E-1,1.482211113E0,-8.662128448E-2,1.492410324E0
8.850375707E0,-9.994739294E-2,6.776647568E-1,-1.410088539E-1,6.993586353E-1
8.858374925E0,-2.512377501E-2,-4.465961456E-2,-9.751558304E-2,1.101588588E-1
8.866369105E0,8.250242472E-2,-5.906038284E-1,-3.945803642E-2,5.976424256E-1
8.874360824E0,1.823295951E-1,-1.114956856E0,-6.487154961E-2,1.131627673E0
8.882350589E0,2.888737917E-1,-1.534980774E0,-1.094930172E-1,1.565759485E0
8.890346097E0,3.841813803E-1,-1.781674862E0,-8.277845383E-2,1.824503472E0
8.898344378E0,4.726195931E-1,-1.984619617E0,-3.119325638E-2,2.040357156E0
8.906337933E0,5.252688527E-1,-2.093846798E0,8.510303497E-2,2.160403737E0
8.914332074E0,5.356091857E-1,-2.119338036E0,1.744371653E-1,2.192920252E0
8.922325394E0,5.558482409E-1,-2.090142250E0,2.457674742E-1,2.176709338E0
8.930319105E0,5.486782193E-1,-1.994061470E0,2.610566616E-1,2.084581376E0
8.938312972E0,5.432109833E-1,-1.874286175E0,2.613580227E-1,1.968840992E0
8.946307816E0,5.679355264E-1,-1.749974728E0,2.922794819E-1,1.862898174E0
8.954304574E0,5.886139274E-1,-1.630632877E0,3.441629410E-1,1.767449594E0
8.962301605E0,6.100210547E-1,-1.535370827E0,3.665212393E-1,1.692284575E0
8.970300277E0,5.895606279E-1,-1.447381973E0,3.781383038E-1,1.607944305E0
8.978300043E0,5.960201025E-1,-1.376126289E0,4.288905859E-1,1.559779043E0
8.986297738E0,5.550775528E-1,-1.343071938E0,4.729020596E-1,1.528263615E0
8.994292503E0,5.168628097E-1,-1.355312347E0,5.456415415E-1,1.549755921E0
9.002288793E0,5.082560778E-1,-1.393634796E0,6.250398159E-1,1.609725740E0
9.010286878E0,5.455552340E-1,-1.410125732E0,6.487784386E-1,1.645295887E0
9.018282386E0,5.917787552E-1,-1.395250320E0,5.903078318E-1,1.626465151E0
9.026280238E0,6.769624352E-1,-1.377647400E0,5.667372942E-1,1.636270655E0
9.034279418E0,7.055389881E-1,-1.342881203E0,5.799156427E-1,1.624012728E0
9.042279339E0,6.926749349E-1,-1.261965752E0,6.017323732E-1,1.560268558E0
9.050276097E0,6.425278187E-1,-1.199521065E0,5.722608566E-1,1.476202991E0
9.058271800E0,5.842467546E-1,-1.146120071E0,7.028775215E-1,1.465937345E0
9.066268089E0,5.709636211E-1,-1.164427757E0,6.031924486E-1,1.430291085E0
9.074264691E0,5.312569141E-1,-1.130108833E0,2.525044680E-1,1.274024486E0
9.082261253E0,5.141965747E-1,-9.712333679E-1,1.741050482E-1,1.112656704E0
9.090257777E0,5.620156527E-1,-7.305698395E-1,4.764250517E-1,1.037581184E0
9.098257074E0,5.920568705E-1,-4.651660919E-1,6.186637878E-1,9.745028031E-1
9.106255003E0,5.441020131E-1,-9.956169128E-2,4.578082561E-1,7.180166645E-1
9.114251410E0,4.208500385E-1,3.597173691E-1,4.167493582E-1,6.929584173E-1
9.122249457E0,3.849576116E-1,7.643404007E-1,5.403914452E-1,1.012142048E0
9.130248168E0,4.084699750E-1,1.174002647E0,6.665942669E-1,1.410488516E0
9.138243519E0,5.037576556E-1,1.501298904E0,5.903377533E-1,1.690020366E0
9.146240003E0,6.408436894E-1,1.697623253E0,2.629690170E-1,1.833509762E0
9.154238050E0,8.173472285E-1,1.887995720E0,-4.026496410E-2,2.057718542E0
9.162237777E0,1.010083199E0,2.075449944E0,-1.699173450E-2,2.308256757E0
9.170235082E0,1.191542745E0,2.298890114E0,-2.495849133E-1,2.601338597E0
9.178234496E0,1.083135605E0,2.949291229E0,-5.902349949E-1,3.196854523E0
9.186234105E0,1.044903278E0,3.907332420E0,1.186110020E0,4.214964589E0
9.194234730E0,9.569019079E-1,4.522936821E0,2.831503153E0,5.421257128E0
9.202228793E0,4.005332291E-1,4.890544891E0,1.465862036E0,5.121192020E0
9.210227308E0,-3.928689361E-1,5.338082314E0,-1.345074058E0,5.518939482E0
9.218224730E0,-6.498216391E-1,5.945522308E0,-1.664291739E0,6.208169672E0
9.226219652E0,-4.518598318E-1,6.415137291E0,-1.242800951E-1,6.432232063E0
9.234217425E0,-1.786409914E-1,6.253984451E0,8.688189983E-1,6.316571900E0
9.242213753E0,-2.069299966E-1,5.675125122E0,1.301079988E-1,5.680386718E0
9.250209691E0,-4.679211378E-1,4.803380013E0,-1.087639570E0,4.947157726E0
9.258204769E0,-7.317367792E-1,3.790664673E0,-1.226641893E0,4.050830496E0
9.266198480E0,-1.011317492E0,2.762165070E0,-9.101778269E-1,3.079081457E0
9.274195199E0,-1.238351226E0,1.501966476E0,-5.858054161E-1,2.032876051E0
9.282191566E0,-1.454900265E0,1.794033051E-1,-9.636389017E-1,1.754286253E0
9.290187894E0,-1.575738430E0,-8.870458603E-1,-1.660880208E0,2.455264756E0
9.298181996E0,-1.643637061E0,-2.048805714E0,-2.361706972E0,3.532252463E0
9.306176566E0,-1.674463391E0,-2.910304546E0,-2.709288597E0,4.314388126E0
9.314172582E0,-1.606184721E0,-3.820014954E0,-2.683426380E0,4.936914091E0
9.322166839E0,-1.464091420E0,-4.491606236E0,-2.169878483E0,5.198698192E0
9.330160433E0,-1.341436863E0,-4.920918465E0,-1.638350725E0,5.357152648E0
9.338159027E0,-1.216179013E0,-5.134580135E0,-1.101370931E0,5.390363855E0
9.346153441E0,-1.018020630E0,-4.745268822E0,-8.156403303E-1,4.921301793E0
9.354148050E0,-6.878533959E-1,-4.046085358E0,-9.229154587E-1,4.206628336E0
9.362145980E0,-2.651745677E-1,-2.973797798E0,-1.075271726E0,3.173326359E0
9.370138363E0,8.782800287E-2,-1.711245060E0,-1.015674710E0,1.991900733E0
9.378131214E0,4.158336520E-1,-5.692110062E-1,-8.456863165E-1,1.100956013E0
9.386127308E0,7.855941057E-1,5.914258957E-1,-5.750467777E-1,1.139131900E0
9.394125472E0,1.000339627E0,1.579500198E0,-4.122703075E-1,1.914540951E0
9.402126527E0,1.134541512E0,2.218499184E0,-4.666854143E-1,2.535097305E0
9.410125941E0,1.156061530E0,2.647130966E0,-6.201165915E-1,2.954373910E0
9.418125121E0,1.054696798E0,2.597486496E0,-7.156642675E-1,2.893353898E0
9.426122855E0,8.229769468E-1,2.096435547E0,-6.340086460E-1,2.339722210E0
9.434124339E0,5.038290620E-1,1.306346893E0,-4.520835876E-1,1.471314208E0
9.442123832E0,1.903823614E-1,4.929752350E-1,-3.494609594E-1,6.335558286E-1
9.450123246E0,-9.419585764E-2,-1.499414444E-1,-3.852618933E-1,4.240071022E-1
9.458124574E0,-3.614225686E-1,-7.878246307E-1,-2.496629953E-1,9.020119362E-1
9.466125238E0,-5.320019126E-1,-1.277022362E0,5.487310886E-2,1.384493845E0
9.474124847E0,-5.762047768E-1,-1.593753815E0,3.565242290E-1,1.731811968E0
9.482124535E0,-5.527561307E-1,-1.836887836E0,5.005288124E-1,1.982479598E0
9.490123128E0,-4.343191981E-1,-1.943991184E0,2.755423784E-1,2.010885002E0
9.498121332E0,-2.610449791E-1,-1.910364151E0,9.845614433E-2,1.930629245E0
9.506120980E0,-1.124176979E-1,-1.790818691E0,9.978747368E-2,1.797116263E0
9.514120668E0,-5.335062742E-3,-1.642826080E0,1.694704294E-1,1.651552669E0
9.522118089E0,1.111065745E-1,-1.538384438E0,2.005338669E-1,1.555373004E0
9.530116214E0,1.158457994E-1,-1.386462212E0,1.835068464E-1,1.403343321E0
9.538113441E0,7.500579953E-2,-1.199175835E0,2.266055346E-1,1.222701362E0
9.546110121E0,2.328455448E-3,-1.064959526E0,2.885417938E-1,1.103358772E0
9.554106605E0,-1.056458354E-1,-9.476928711E-1,3.254426718E-1,1.007569230E0
9.562109027E0,-2.014169395E-1,-9.094066620E-1,3.697700500E-1,1.002157248E0
9.570107855E0,-2.278288752E-1,-9.189214706E-1,4.093217850E-1,1.031439280E0
9.578106605E0,-2.778359056E-1,-8.948030472E-1,4.461903572E-1,1.037762554E0
9.586102855E0,-3.131562769E-1,-9.207420349E-1,4.557948112E-1,1.074049188E0
9.594100003E0,-3.295134306E-1,-9.297151566E-1,4.957786798E-1,1.103968239E0
9.602093753E0,-3.235251904E-1,-9.240903854E-1,5.393100977E-1,1.117795585E0
9.610085511E0,-3.697566390E-1,-9.373273849E-1,5.765089989E-1,1.160889842E0
9.618076839E0,-3.767642677E-1,-9.694566727E-1,4.924029112E-1,1.150764172E0
9.626069730E0,-4.292244613E-1,-1.066040039E0,3.595055342E-1,1.204125920E0
9.634067425E0,-4.511450827E-1,-1.157636642E0,2.209912539E-1,1.261939625E0
9.642062308E0,-4.724783897E-1,-1.246751785E0,1.466368437E-1,1.341315849E0
9.650057386E0,-4.416356683E-1,-1.275740623E0,1.043843031E-1,1.354050326E0
9.658055785E0,-3.943777084E-1,-1.232736588E0,5.898439884E-2,1.295628199E0
9.666054066E0,-2.846606970E-1,-1.036398888E0,2.256143093E-2,1.075017853E0
9.674051019E0,-1.373458803E-1,-7.176723480E-1,6.121742725E-2,7.332564786E-1
9.682046800E0,-1.886609197E-2,-3.360118866E-1,2.868770361E-1,4.422197996E-1
9.690047386E0,1.372161508E-1,1.282663345E-1,6.097127199E-1,6.379891264E-1
9.698045394E0,2.630956471E-1,5.963478088E-1,7.580951452E-1,9.997791145E-1
9.706040316E0,2.400224805E-1,9.053516388E-1,6.182619333E-1,1.122283475E0
9.714034066E0,1.258966625E-1,1.179971695E0,1.820834875E-1,1.200557190E0
9.722029261E0,-2.043883801E-1,1.412302971E0,1.486899853E-1,1.434741441E0
9.730023832E0,-5.534012914E-1,1.533004761E0,5.101115704E-1,1.707796943E0
9.738016644E0,-8.991625905E-1,1.594471931E0,7.510740757E-1,1.978622342E0
9.746011293E0,-1.111105680E0,1.701697350E0,5.312047005E-1,2.100597090E0
9.754006566E0,-1.119202256E0,1.921722412E0,5.620837212E-2,2.224587625E0
9.762005043E0,-8.706196547E-1,2.441621780E0,-2.153631449E-1,2.601129906E0
9.770002738E0,-3.005034328E-1,3.168315887E0,5.336041451E-1,3.226958515E0
9.778002035E0,3.687991500E-1,3.706041336E0,1.654006004E0,4.075106264E0
9.785999457E0,1.002344251E0,4.029664040E0,1.573157668E0,4.440462962E0
9.793995316E0,1.414516568E0,4.287418365E0,-2.423527241E-1,4.521233040E0
9.801991214E0,1.631810904E0,4.641500473E0,-1.241377592E0,5.074184840E0
9.809985082E0,1.895556450E0,4.958957672E0,-8.818132281E-1,5.381634512E0
9.817980589E0,2.066703081E0,4.869089127E0,-6.545430422E-1,5.329889037E0
9.825977464E0,1.903375268E0,4.624488831E0,-9.856802225E-1,5.097087389E0
9.833972972E0,1.699219465E0,4.061630249E0,-8.398556113E-1,4.482136156E0
9.841968128E0,1.657517791E0,3.266307831E0,-4.471362829E-1,3.689994977E0
9.849967699E0,1.715127468E0,2.202207565E0,-4.276149273E-1,2.823868786E0
9.857964925E0,1.612096190E0,1.106596947E0,-8.095741272E-1,2.116322565E0
9.865960238E0,1.348885059E0,1.806631088E-1,-1.329199553E0,1.902341061E0
9.873959925E0,9.666712284E-1,-8.189573288E-1,-1.857050657E0,2.248061724E0
9.881961644E0,7.232825756E-1,-1.803082466E0,-2.311849594E0,3.019750422E0
9.889962347E0,5.350152254E-1,-2.604108334E0,-2.600097179E0,3.718618943E0
9.897961918E0,3.772654533E-1,-3.393588066E0,-2.561723709E0,4.268629469E0
9.905962894E0,2.916427851E-1,-4.064132690E0,-1.927628875E0,4.507547351E0
9.913956332E0,3.049992323E-1,-4.555378914E0,-1.217915177E0,4.725232159E0
9.921947503E0,4.533886909E-1,-4.828829288E0,-6.634197235E-1,4.895230263E0
9.929942464E0,6.302601099E-1,-4.509928226E0,-3.776319027E-1,4.569385765E0
9.937938011E0,6.808446646E-1,-3.804470062E0,-3.090296984E-1,3.877246609E0
9.945933793E0,6.599097252E-1,-2.694344997E0,-2.814832926E-1,2.788226794E0
9.953930550E0,5.418843031E-1,-1.492866516E0,-3.086674213E-1,1.617888936E0
9.961927464E0,2.641298771E-1,-4.098415375E-1,-3.548555374E-1,6.030399077E-1
9.969923128E0,-2.821626663E-1,7.373409271E-1,-3.830634356E-1,8.775106887E-1
9.977919066E0,-8.332044482E-1,1.704819679E0,-4.573947191E-1,1.951883634E0
9.985915277E0,-1.244866371E0,2.305768967E0,-6.050310135E-1,2.689298298E0
9.993913675E0,-1.607497215E0,2.635724068E0,-7.615026236E-1,3.179775920E0
1.000191215E1,-1.654276848E0,2.529446602E0,-7.211098671E-1,3.107206373E0
1.000991075E1,-1.458996773E0,2.066833496E0,-5.240646601E-1,2.583624596E0
1.001790789E1,-1.117084265E0,1.367716789E0,-2.417378426E-1,1.782403898E0
1.002590254E1,-7.358691692E-1,6.449031830E-1,-1.436120272E-1,9.889529635E-1
1.003389672E1,-4.442787170E-1,5.863761902E-2,-2.003076077E-1,4.908615757E-1
1.004189586E1,-1.457052827E-1,-5.347633362E-1,-1.439465284E-1,5.726451416E-1
1.004989352E1,1.261476278E-1,-1.089811325E0,-1.035046577E-2,1.097136765E0
1.005789079E1,3.531236649E-1,-1.481804848E0,5.164957047E-2,1.524175058E0
1.006588723E1,5.472021103E-1,-1.777605534E0,1.944184303E-2,1.860024077E0
1.007388051E1,6.779510975E-1,-1.936520100E0,-2.354872227E-2,2.051897251E0
1.008187879E1,7.619934678E-1,-2.059289455E0,1.466059685E-2,2.195796448E0
1.008987743E1,7.664119005E-1,-2.112491131E0,1.367061138E-1,2.251376144E0
1.009787742E1,7.716733813E-1,-2.096103668E0,3.189065456E-1,2.256287167E0
1.010587723E1,7.300016284E-1,-2.017580986E0,4.670435190E-1,2.195829015E0
1.011387145E1,6.874967217E-1,-1.896324635E0,4.195336103E-1,2.060268748E0
1.012186621E1,6.344337463E-1,-1.741777420E0,3.720828295E-1,1.890698387E0
1.012985918E1,5.778187513E-1,-1.553654671E0,4.308621883E-1,1.712705337E0
1.013785454E1,5.190795064E-1,-1.391640663E0,5.401859283E-1,1.580477177E0
1.014585332E1,4.584618211E-1,-1.327558517E0,5.203030109E-1,1.497769703E0
1.015385348E1,4.057235122E-1,-1.275168419E0,4.713355303E-1,1.418740021E0
1.016185059E1,3.294061422E-1,-1.255831718E0,5.453792810E-1,1.408211728E0
1.016984461E1,3.014682531E-1,-1.276722908E0,6.703288555E-1,1.473175233E0
1.017783883E1,2.938333750E-1,-1.268501282E0,7.267291546E-1,1.491163579E0
1.018583621E1,3.326236010E-1,-1.264647484E0,6.927044392E-1,1.479801054E0
1.019383340E1,3.986268640E-1,-1.255571365E0,6.854618788E-1,1.484998592E0
1.020182766E1,4.222003222E-1,-1.190959930E0,6.855638027E-1,1.437580048E0
1.020982457E1,4.520709515E-1,-1.130704880E0,6.808015108E-1,1.395117331E0
1.021782668E1,4.239067435E-1,-1.070096016E0,6.619110107E-1,1.327753214E0
1.022582676E1,3.472939134E-1,-9.876718521E-1,6.271069050E-1,1.220398222E0
1.023382504E1,2.893909216E-1,-8.738069534E-1,6.285537481E-1,1.114614513E0
1.024182539E1,2.094532251E-1,-7.907333374E-1,5.942822695E-1,1.011089155E0
1.024982305E1,7.192683220E-2,-6.354579926E-1,3.609114885E-1,7.343278778E-1
1.025781926E1,-2.425974607E-2,-4.006938934E-1,2.239984274E-1,4.596949282E-1
1.026581153E1,-3.919899464E-2,-1.100683212E-1,4.185523987E-1,4.345546076E-1
1.027380571E1,-6.953477859E-4,2.651453018E-1,7.909090519E-1,8.341700324E-1
1.028180305E1,5.571234226E-2,6.578960419E-1,8.359357119E-1,1.065232173E0
1.028980067E1,1.307634711E-1,9.840459824E-1,7.379829884E-1,1.236957749E0
1.029779539E1,2.335441113E-1,1.293814659E0,6.176543236E-1,1.452582558E0
1.030578868E1,2.643368840E-1,1.604748726E0,4.778610468E-1,1.695123489E0
1.031378368E1,3.258989453E-1,1.792718887E0,2.870683670E-1,1.844575664E0
1.032178075E1,4.507288337E-1,1.903380394E0,8.671164513E-3,1.956039006E0
1.032978192E1,6.716303229E-1,1.954032898E0,-1.127958298E-1,2.069312629E0
1.033778043E1,1.018795967E0,2.013330460E0,-2.155182362E-1,2.266692055E0
1.034577926E1,1.292468309E0,2.384353638E0,-4.040515423E-1,2.742056573E0
1.035377782E1,1.425432086E0,3.031247139E0,3.279199600E-1,3.365686757E0
1.036177536E1,1.422132969E0,3.618390083E0,1.962117076E0,4.354895222E0
1.036977246E1,1.037858486E0,4.109056473E0,1.557047248E0,4.515073805E0
1.037777067E1,5.867282748E-1,4.555661201E0,-4.141492844E-1,4.611921365E0
1.038576774E1,7.523351908E-2,5.269207001E0,-1.519055486E0,5.484316919E0
1.039376512E1,-1.625375748E-1,5.870692253E0,-5.856759548E-1,5.902072714E0
1.040176348E1,-2.315092981E-1,6.095797539E0,4.872606993E-1,6.119621490E0
1.040976250E1,-3.883432746E-1,5.947446823E0,3.685289621E-1,5.971494604E0
1.041776129E1,-6.647901535E-1,5.570777893E0,-2.735629082E-1,5.616969730E0
1.042575793E1,-9.891778827E-1,4.884746552E0,-6.226160526E-1,5.022636012E0
1.043375743E1,-1.428516388E0,3.882821083E0,-1.139899135E0,4.291425016E0
1.044175430E1,-1.778513432E0,2.814660072E0,-1.416982651E0,3.618461162E0
1.044975211E1,-1.889587998E0,1.836403847E0,-1.346124530E0,2.958880387E0
1.045774821E1,-1.947003603E0,6.077280045E-1,-1.188145399E0,2.360475767E0
1.046574754E1,-1.986588478E0,-6.417045593E-1,-1.427853465E0,2.529245745E0
1.047374688E1,-2.084791422E0,-1.723028660E0,-1.879324079E0,3.293484785E0
1.048174641E1,-2.084147215E0,-2.897046566E0,-2.208076715E0,4.196683357E0
1.048974465E1,-2.008077145E0,-4.011330128E0,-2.192543983E0,4.993034381E0
1.049774008E1,-1.964819551E0,-4.873460293E0,-1.823545456E0,5.562054398E0
1.050573832E1,-1.944254518E0,-5.578625202E0,-1.257898688E0,6.040156777E0
1.051373821E1,-1.775462389E0,-6.120069981E0,-9.039484262E-1,6.436198103E0
1.052173567E1,-1.597995520E0,-6.384643555E0,-7.780888081E-1,6.627419196E0
1.052973348E1,-1.479729652E0,-5.905839920E0,-6.062917709E-1,6.118507556E0
1.053773274E1,-1.344625235E0,-4.772118092E0,-8.177213669E-1,5.024917545E0
1.054572782E1,-1.124467373E0,-3.621992111E0,-1.166407228E0,3.967840665E0
1.055372118E1,-8.147958517E-1,-2.248013496E0,-1.396100044E0,2.768853968E0
1.056171770E1,-4.993832707E-1,-8.792524338E-1,-1.369038343E0,1.701979577E0
1.056971422E1,-2.308466882E-1,2.504959106E-1,-1.182655334E0,1.230736379E0
1.057770946E1,1.993131638E-2,1.395314217E0,-1.034943819E0,1.737356535E0
1.058570598E1,1.577485651E-1,2.241573334E0,-1.007585526E0,2.462674199E0
1.059370360E1,2.476559281E-1,2.717310905E0,-9.851121306E-1,2.900958105E0
1.060170168E1,2.447248399E-1,2.884159088E0,-8.518539071E-1,3.017270119E0
1.060969825E1,1.049362272E-1,2.673006058E0,-6.956235170E-1,2.764030585E0
1.061769188E1,-5.877205729E-2,2.225992203E0,-5.834800005E-1,2.301943603E0
1.062568817E1,-2.058089226E-1,1.573900223E0,-4.801539183E-1,1.658332599E0
1.063368664E1,-3.663368225E-1,1.020506859E0,-4.010057449E-1,1.156046073E0
1.064168813E1,-5.611607432E-1,4.530429840E-1,-3.208360672E-1,7.893574014E-1
1.064968516E1,-7.607002854E-1,-5.207729340E-2,-2.936856747E-1,8.170852124E-1
1.065768403E1,-8.757562041E-1,-4.301881790E-1,-2.096594572E-1,9.979819069E-1
1.066568223E1,-1.006285906E0,-7.962312698E-1,-2.328944206E-2,1.283408726E0
1.067368137E1,-1.068140745E0,-1.095304489E0,8.106517792E-2,1.532053569E0
1.068167864E1,-1.088755608E0,-1.335878372E0,1.463099718E-1,1.729556708E0
1.068967688E1,-1.072118640E0,-1.554243088E0,2.059015036E-1,1.899343408E0
1.069767590E1,-1.001186728E0,-1.693326473E0,2.525025606E-1,1.983302033E0
1.070567641E1,-9.646064043E-1,-1.717286110E0,2.409851551E-1,1.984341438E0
1.071367457E1,-9.052262902E-1,-1.697936535E0,1.856573820E-1,1.933104181E0
1.072167168E1,-8.630895615E-1,-1.740732193E0,4.199173450E-1,1.987813557E0
1.072966954E1,-8.210235238E-1,-1.790818214E0,6.912986040E-1,2.087822613E0
1.073766692E1,-8.429186344E-1,-1.795530796E0,8.438373804E-1,2.155575141E0
1.074566250E1,-8.663332462E-1,-1.786194801E0,7.686989307E-1,2.128831418E0
1.075365981E1,-9.189369678E-1,-1.690954208E0,6.523344517E-1,2.032070747E0
1.076165649E1,-9.796318412E-1,-1.552635193E0,5.481232405E-1,1.915931542E0
1.076965407E1,-9.933526516E-1,-1.392558098E0,5.478289127E-1,1.796130303E0
1.077765055E1,-9.848726988E-1,-1.287287712E0,5.266748667E-1,1.704250657E0
1.078564657E1,-9.756680727E-1,-1.186635971E0,5.379395485E-1,1.627701469E0
1.079364313E1,-9.743638635E-1,-1.088178635E0,5.261110067E-1,1.552517462E0
1.080163496E1,-9.814006686E-1,-9.775037766E-1,4.717353582E-1,1.463282322E0
1.080962844E1,-9.684844017E-1,-8.808641434E-1,3.598562479E-1,1.357711381E0
1.081761977E1,-9.568482637E-1,-8.006381989E-1,2.501322031E-1,1.272456775E0
1.082561274E1,-9.538207650E-1,-7.415885925E-1,1.495310068E-1,1.217410044E0
1.083360610E1,-9.513276815E-1,-6.869621277E-1,1.058343649E-1,1.178194481E0
1.084160207E1,-9.010780454E-1,-6.295709610E-1,1.620905399E-1,1.111114117E0
1.084959996E1,-8.114522696E-1,-5.407266617E-1,6.264960766E-2,9.771208123E-1
1.085759688E1,-6.449536085E-1,-4.420204163E-1,-1.727485657E-2,7.820777622E-1
1.086559641E1,-4.742138982E-1,-2.806701660E-1,6.865262985E-4,5.510490311E-1
1.087359422E1,-3.250829875E-1,-1.140260696E-1,1.563956738E-1,3.783391337E-1
1.088159348E1,-2.508639395E-1,1.009674072E-1,3.952308893E-1,4.788889113E-1
1.088959184E1,-2.830506265E-1,3.260202408E-1,4.490178823E-1,6.229156550E-1
1.089758989E1,-3.514581025E-1,5.275144577E-1,5.651018620E-1,8.491963349E-1
1.090558504E1,-4.910772145E-1,7.295551300E-1,7.352353334E-1,1.146289018E0
1.091358133E1,-5.472350121E-1,8.816442490E-1,5.493227243E-1,1.174103145E0
1.092157516E1,-4.820224941E-1,1.066843987E0,-1.454495192E-1,1.179685271E0
1.092957000E1,-3.697619140E-1,1.409623146E0,-6.613405347E-1,1.600353895E0
1.093756454E1,-3.079421818E-1,1.892090797E0,-4.638155699E-1,1.972298369E0
1.094555961E1,-7.885938883E-2,2.583398819E0,6.549029350E-1,2.666283202E0
1.095355594E1,2.488299906E-1,3.259939194E0,1.513945103E0,3.602936259E0
1.096154946E1,4.981407523E-1,3.791367531E0,8.481314182E-1,3.916878715E0
1.096954481E1,7.149463892E-1,4.468106270E0,-9.066578746E-1,4.614883582E0
1.097754407E1,8.760083318E-1,5.253176689E0,-1.500993848E0,5.533194236E0
1.098554391E1,1.005421519E0,5.853442192E0,-7.610388994E-1,5.987723953E0
1.099354321E1,1.046122909E0,6.201410294E0,1.072469950E-1,6.289941549E0
1.100154434E1,9.028341770E-1,6.135317802E0,-5.991101265E-3,6.201392584E0
1.100954442E1,6.789780855E-1,5.716959953E0,-5.212320089E-1,5.780685526E0
1.101754481E1,5.435416698E-1,4.858187675E0,-9.046277404E-1,4.971496393E0
1.102554454E1,5.077402592E-1,3.784737587E0,-1.097548127E0,3.973241833E0
1.103353895E1,5.150314569E-1,2.798532486E0,-1.089376211E0,3.046929931E0
1.104153024E1,4.730787277E-1,1.583259583E0,-1.034205437E0,1.949383306E0
1.104952321E1,4.362262189E-1,2.845211029E-1,-1.253162146E0,1.357078087E0
1.105752000E1,4.246779382E-1,-8.511848450E-1,-1.705308199E0,1.952675868E0
1.106551575E1,4.033226371E-1,-2.067727089E0,-2.312951565E0,3.128563473E0
1.107350918E1,4.013753533E-1,-3.290389538E0,-2.630811453E0,4.231894893E0
1.108150250E1,3.729085326E-1,-4.254899979E0,-2.449788332E0,4.923890481E0
1.108949473E1,2.304115295E-1,-5.197840691E0,-1.817293167E0,5.511187873E0
1.109749110E1,1.370801330E-1,-5.956195831E0,-1.170786142E0,6.071721332E0
1.110548645E1,-8.933722973E-3,-6.380019188E0,-6.958348751E-1,6.417858741E0
1.111348188E1,3.729796410E-2,-6.723103046E0,-4.099192619E-1,6.735691465E0
1.112147887E1,9.188604355E-2,-6.081719398E0,-1.999881268E-1,6.085700382E0
1.112947786E1,1.208699346E-1,-5.008561134E0,-3.026784658E-1,5.019154155E0
1.113747579E1,1.804297566E-1,-3.586612701E0,-5.370432138E-1,3.631082618E0
1.114547297E1,2.210687995E-1,-2.290822983E0,-5.935776234E-1,2.376778439E0
1.115346668E1,1.159308553E-1,-7.223615646E-1,-5.359256268E-1,9.068971665E-1
1.116146110E1,-1.794818640E-1,8.631715775E-1,-5.204561949E-1,1.023793711E0
1.116945774E1,-4.970195889E-1,2.217332840E0,-5.718541145E-1,2.343205182E0
1.117745477E1,-8.385536075E-1,3.613239288E0,-6.867971420E-1,3.772315022E0
1.118545094E1,-1.127540350E0,4.588258743E0,-7.932804823E-1,4.790903825E0
1.119344207E1,-1.257684469E0,4.960544586E0,-8.412971497E-1,5.186188746E0
1.120143043E1,-1.197534323E0,4.603781700E0,-8.636080623E-1,4.834740250E0
1.120942547E1,-9.398857951E-1,3.462583542E0,-6.648101807E-1,3.648950900E0
1.121741985E1,-6.991068125E-1,2.341146469E0,-3.757063150E-1,2.472017872E0
1.122541618E1,-4.663198888E-1,1.191520691E0,-1.753376722E-1,1.291479421E0
1.123341539E1,-2.630485594E-1,1.883068085E-1,-5.082309246E-2,3.274705872E-1
1.124141512E1,-1.533430517E-1,-5.489578247E-1,4.642868042E-2,5.718604788E-1
1.124941176E1,-2.003169060E-2,-1.216929436E0,1.845211983E-1,1.231002272E0
1.125740563E1,9.512162209E-2,-1.753215313E0,3.390985727E-1,1.788239329E0
1.126540340E1,2.075143456E-1,-2.102564335E0,4.712738991E-1,2.164702768E0
1.127339922E1,2.831142545E-1,-2.336880684E0,5.784361362E-1,2.423995333E0
1.128139813E1,2.938169837E-1,-2.451413631E0,5.871897936E-1,2.537823687E0
1.128939582E1,2.656130791E-1,-2.472819805E0,5.880962610E-1,2.555630120E0
1.129739383E1,2.170212865E-1,-2.444836617E0,5.772113800E-1,2.521407801E0
1.130539020E1,1.298403144E-1,-2.278643131E0,5.489872694E-1,2.347436911E0
1.131339036E1,3.492397070E-2,-2.048061371E0,4.940644503E-1,2.107101028E0
1.132139102E1,-8.477428555E-2,-1.783879280E0,3.722329140E-1,1.824272268E0
1.132938938E1,-1.150340140E-1,-1.610471725E0,4.511100054E-1,1.676410522E0
1.133738743E1,-8.070510626E-2,-1.513373375E0,6.321834326E-1,1.642092622E0
1.134538508E1,4.566848278E-3,-1.440035820E0,7.938275337E-1,1.644349772E0
1.135338297E1,1.575565338E-1,-1.407394409E0,7.576149702E-1,1.606101967E0
1.136138356E1,2.849187851E-1,-1.343710899E0,5.480831861E-1,1.478895829E0
1.136938313E1,3.648544550E-1,-1.251186371E0,3.604315519E-1,1.352219291E0
1.137738071E1,3.928181529E-1,-1.194190025E0,2.908822298E-1,1.290352041E0
1.138538125E1,3.687703013E-1,-1.177413940E0,2.358007431E-1,1.256143747E0
1.139337993E1,2.741374969E-1,-1.196220398E0,5.944383144E-2,1.228669271E0
1.140137977E1,1.646289229E-1,-1.150088310E0,-2.753245831E-2,1.162137617E0
1.140937704E1,5.890983343E-2,-1.053343773E0,8.263349533E-3,1.055022159E0
1.141737481E1,-2.519816160E-2,-8.294668198E-1,1.694047451E-1,8.469640607E-1
1.142537223E1,-8.927422762E-2,-5.527477264E-1,3.722057343E-1,6.723370029E-1
1.143336895E1,-1.266701519E-1,-1.799478531E-1,5.032856464E-1,5.492931814E-1
1.144136778E1,-1.871514320E-1,2.077369690E-1,4.363067150E-1,5.182121731E-1
1.144936461E1,-2.599459589E-1,5.576992035E-1,3.353929520E-1,7.007772366E-1
1.145735973E1,-3.195831180E-1,9.609155655E-1,2.429289818E-1,1.041396458E0
1.146535489E1,-2.631448805E-1,1.278576851E0,3.429303169E-1,1.349668550E0
1.147334954E1,-1.737574935E-1,1.450372696E0,2.986074686E-1,1.490952395E0
1.148134649E1,-8.288443089E-3,1.480347633E0,1.485815048E-1,1.487808549E0
1.148934121E1,1.966517568E-1,1.392647743E0,-8.868694305E-3,1.406491487E0
1.149733715E1,3.415507078E-1,1.256988525E0,-6.847321987E-2,1.304364068E0
1.150533485E1,5.243724585E-1,1.092714310E0,1.880621910E-2,1.212165299E0
1.151333067E1,7.277448773E-1,1.022003174E0,1.139922142E-1,1.259800508E0
1.152133098E1,8.005986810E-1,1.202756882E0,-1.267763376E-1,1.450398085E0
1.152933286E1,7.082762122E-1,1.826604843E0,-4.510402679E-3,1.959122454E0
1.153733469E1,6.376652122E-1,2.541561127E0,1.527270317E0,3.032936614E0
1.154533438E1,4.792302251E-1,3.047275543E0,1.899365067E0,3.622587129E0
1.155333454E1,-2.067477703E-1,3.719205856E0,-2.024949789E-1,3.730447836E0
1.156133305E1,-1.051396489E0,4.717201233E0,-1.931895733E0,5.204771193E0
1.156932961E1,-1.479370236E0,5.796473503E0,-1.392039418E0,6.142101848E0
1.157732961E1,-1.670015574E0,6.912754059E0,4.099763632E-1,7.123426234E0
1.158533000E1,-1.860607147E0,7.554018974E0,1.071255565E0,7.853193625E0
1.159333016E1,-2.133059978E0,7.497895241E0,-3.537685871E-1,7.803430664E0
1.160132922E1,-2.609080553E0,6.498873711E0,-2.775329590E0,7.532935362E0
1.160932532E1,-2.460455894E0,4.888296127E0,-3.280368805E0,6.380446829E0
1.161732383E1,-2.074170351E0,3.396017075E0,-2.338173151E0,4.615427207E0
1.162532016E1,-1.820946217E0,1.604341507E0,-1.456497431E0,2.830396008E0
1.163331860E1,-1.801639557E0,-1.904344559E-1,-1.493121743E0,2.347676067E0
1.164131696E1,-1.905774951E0,-1.651344299E0,-1.867040277E0,3.137635344E0
1.164931485E1,-2.032933712E0,-3.144875526E0,-2.167599678E0,4.326840639E0
1.165730957E1,-1.973015308E0,-4.460577488E0,-2.060471773E0,5.294816792E0
1.166530532E1,-1.918383956E0,-5.450165272E0,-1.771969199E0,6.043539802E0
1.167330020E1,-1.862390876E0,-6.267276287E0,-1.362821341E0,6.678662579E0
1.168129868E1,-1.810136080E0,-6.857863426E0,-9.689141512E-1,7.158608666E0
1.168929598E1,-1.701316595E0,-7.140138149E0,-8.941981792E-1,7.394297893E0
1.169729223E1,-1.653152585E0,-6.623527527E0,-8.529176712E-1,6.879789163E0
1.170528692E1,-1.484881043E0,-5.561689854E0,-1.029922962E0,5.847906211E0
1.171328192E1,-1.094054222E0,-4.042445660E0,-1.165307999E0,4.346983354E0
1.172127766E1,-7.510575652E-1,-2.421327114E0,-1.200488567E0,2.805010742E0
1.172927430E1,-5.226324201E-1,-9.995832443E-1,-1.161306620E0,1.618933097E0
1.173726836E1,-3.792163134E-1,5.489797592E-1,-1.168351412E0,1.345447439E0
1.174526184E1,-2.674902380E-1,1.894344330E0,-1.312525749E0,2.320089505E0
1.175325672E1,-1.871421337E-1,2.802165985E0,-1.526276588E0,3.196353643E0
1.176125340E1,-2.614655495E-1,3.513722420E0,-1.649036765E0,3.890235434E0
1.176925071E1,-4.627200961E-1,3.626538277E0,-1.590837121E0,3.987060635E0
1.177724586E1,-6.526695490E-1,3.170360565E0,-1.458093524E0,3.550098643E0
1.178523957E1,-7.913032174E-1,2.329835892E0,-1.161682248E0,2.720992780E0
1.179323477E1,-8.805524111E-1,1.490130424E0,-9.275205135E-1,1.963709636E0
1.180122660E1,-9.731867313E-1,8.353013992E-1,-8.351804614E-1,1.530472883E0
1.180922043E1,-1.118205070E0,2.046833038E-1,-7.323793173E-1,1.352278558E0
1.181721442E1,-1.227166176E0,-2.723112106E-1,-5.985361338E-1,1.392241259E0
1.182520860E1,-1.272613525E0,-5.812835693E-1,-4.458291531E-1,1.468400288E0
1.183320149E1,-1.306957364E0,-8.588342667E-1,-3.025118113E-1,1.592873895E0
1.184119313E1,-1.299976110E0,-1.064350128E0,-2.229561806E-1,1.694841745E0
1.184918692E1,-1.249670267E0,-1.216817856E0,-1.337783337E-1,1.749347911E0
1.185717965E1,-1.167509198E0,-1.371399879E0,-2.960860729E-2,1.801302869E0
1.186517696E1,-1.058222890E0,-1.489837646E0,5.877375603E-2,1.828361631E0
1.187317317E1,-9.459843636E-1,-1.551452637E0,1.428824663E-1,1.822719698E0
1.188116883E1,-8.397139311E-1,-1.571944237E0,2.104413509E-1,1.794551123E0
1.188916450E1,-7.458378077E-1,-1.575417519E0,2.529791594E-1,1.761309981E0
1.189715950E1,-7.185599208E-1,-1.514093399E0,2.759373188E-1,1.698513640E0
1.190515067E1,-7.397013307E-1,-1.426355362E0,3.013103008E-1,1.634758568E0
1.191314309E1,-8.025308847E-1,-1.336150169E0,2.785228491E-1,1.583328164E0
1.192113766E1,-9.375321865E-1,-1.162081718E0,1.524716616E-1,1.500882450E0
1.192913250E1,-1.112004519E0,-1.004744530E0,1.840636730E-1,1.509948693E0
1.193712828E1,-1.216570735E0,-8.833560944E-1,2.351329327E-1,1.521725941E0
1.194512231E1,-1.314164996E0,-7.140741348E-1,1.779869795E-1,1.506190848E0
1.195311907E1,-1.384057760E0,-5.399007797E-1,-1.730871201E-2,1.485734945E0
1.196112004E1,-1.476533413E0,-4.636144638E-1,-2.373971343E-1,1.565709644E0
1.196911887E1,-1.532631040E0,-5.187263489E-1,-4.078835249E-1,1.668653319E0
1.197711821E1,-1.594000816E0,-5.927228928E-1,-5.882880092E-1,1.799511548E0
1.198511739E1,-1.611000538E0,-6.807756424E-1,-6.255088449E-1,1.857428201E0
1.199311512E1,-1.607450962E0,-7.232141495E-1,-4.916087985E-1,1.829922543E0
1.200111473E1,-1.569171906E0,-6.649732590E-1,-3.660690188E-1,1.743128346E0
1.200911461E1,-1.451756001E0,-4.941282272E-1,-3.061493635E-1,1.563804854E0
1.201711293E1,-1.264200687E0,-2.123651505E-1,-1.397949457E-1,1.289513459E0
1.202511282E1,-1.081351757E0,6.971549988E-2,-9.402394295E-3,1.083637522E0
1.203311739E1,-9.636483788E-1,3.257865906E-1,1.813721657E-2,1.017390810E0
1.204112133E1,-8.192396164E-1,5.988845825E-1,1.347684860E-1,1.023708375E0
1.204912164E1,-6.725567579E-1,8.305797577E-1,3.474918604E-1,1.123808667E0
1.205712137E1,-6.108712554E-1,9.932775497E-1,2.228822708E-1,1.187198588E0
1.206512266E1,-5.221688747E-1,1.218743324E0,-2.743977308E-1,1.353990302E0
1.207312246E1,-4.313222170E-1,1.613543510E0,-5.912065506E-1,1.771746794E0
1.208112227E1,-2.414279878E-1,2.124063492E0,-2.849873304E-1,2.156652723E0
1.208912168E1,2.107321322E-1,2.769102097E0,8.553941250E-1,2.905861931E0
1.209712090E1,5.886433125E-1,3.260360718E0,1.433680058E0,3.609971117E0
1.210511981E1,7.428431511E-1,3.553857803E0,3.515133858E-1,3.647640730E0
1.211311840E1,6.606409550E-1,3.932974815E0,-1.573903322E0,4.287412861E0
1.212111957E1,6.018862724E-1,4.411719322E0,-1.915988564E0,4.847323658E0
1.212911965E1,4.266895652E-1,4.909499168E0,-7.634081244E-1,4.986786343E0
1.213712188E1,3.288403451E-1,5.046741486E0,6.082773209E-3,5.057447241E0
1.214512457E1,7.256546617E-2,4.824609756E0,-5.698410273E-1,4.858687461E0
1.215312551E1,-2.662613988E-2,4.520449638E0,-1.282968760E0,4.699061898E0
1.216112887E1,1.799608469E-1,3.936307907E0,-1.146338463E0,4.103778468E0
1.216913024E1,5.288245678E-1,3.074807167E0,-6.920183897E-1,3.195775961E0
1.217712828E1,8.046095967E-1,2.167699814E0,-7.313694954E-1,2.425122765E0
1.218513114E1,9.033073187E-1,1.028065681E0,-1.096287012E0,1.753490339E0
1.219313090E1,7.417907715E-1,-9.488487244E-2,-1.472161651E0,1.651216707E0
1.220113336E1,5.650244951E-1,-1.068737984E0,-1.961128950E0,2.303796935E0
1.220913700E1,3.633981645E-1,-2.137185574E0,-2.620687246E0,3.401120704E0
1.221713875E1,2.295183837E-1,-3.085182667E0,-2.976542950E0,4.293115268E0
1.222514196E1,1.310343146E-1,-3.893056393E0,-2.842159271E0,4.821921546E0
1.223314438E1,1.118853688E-1,-4.630341053E0,-2.293450356E0,5.168412826E0
1.224114422E1,1.056675315E-1,-5.214426994E0,-1.470917821E0,5.418949505E0
1.224914368E1,1.436392665E-1,-5.468594551E0,-8.234177828E-1,5.532104071E0
1.225714075E1,2.664078474E-1,-5.295847893E0,-4.300622940E-1,5.319955979E0
1.226513914E1,3.874039054E-1,-4.380063534E0,-4.829097986E-1,4.423600368E0
1.227314008E1,4.266728759E-1,-3.299715042E0,-5.505322218E-1,3.372425660E0
1.228113672E1,3.857455850E-1,-1.878358364E0,-5.016897917E-1,1.982100514E0
1.228913516E1,2.681546807E-1,-5.917692184E-1,-4.665163755E-1,7.998345262E-1
1.229713309E1,3.413289785E-2,8.912696838E-1,-4.251469374E-1,9.880671143E-1
1.230512950E1,-2.784580290E-1,2.235977173E0,-4.640288353E-1,2.300533754E0
1.231312809E1,-7.014706731E-1,3.274578094E0,-5.758312941E-1,3.398014785E0
1.232112727E1,-1.130502820E0,4.078159332E0,-7.950072289E-1,4.305979175E0
1.232913082E1,-1.456452370E0,4.436958313E0,-9.637113214E-1,4.768290269E0
1.233712825E1,-1.548482895E0,4.224644661E0,-1.073493958E0,4.625776807E0
1.234512438E1,-1.311396480E0,3.333176613E0,-9.017549753E-1,3.693641712E0
1.235312004E1,-8.976219296E-1,2.183962822E0,-4.004237652E-1,2.394944243E0
1.236111446E1,-6.164253950E-1,1.250725746E0,-1.112549305E-1,1.398811216E0
1.236911008E1,-4.094657898E-1,3.031244278E-1,-6.794083118E-2,5.139675168E-1
1.237710852E1,-2.765972018E-1,-4.794940948E-1,-1.664564610E-1,5.780383659E-1
1.238510407E1,-1.927759051E-1,-1.030225754E0,-2.196445465E-1,1.070874120E0
1.239309957E1,-1.272033453E-1,-1.540279388E0,-1.760514975E-1,1.555517732E0
1.240109375E1,-6.406798959E-2,-1.875789165E0,-8.832108974E-2,1.878959903E0
1.240908942E1,-1.438593864E-2,-2.060405731E0,-2.673268318E-2,2.060629362E0
1.241708192E1,8.603572845E-3,-2.132566929E0,4.982924461E-2,2.133166351E0
1.242507688E1,3.784894943E-4,-2.083027363E0,7.128167152E-2,2.084246678E0
1.243307254E1,-4.521042109E-2,-1.938253403E0,8.361494541E-2,1.940582823E0
1.244107086E1,-1.228004396E-1,-1.698164940E0,6.716156006E-2,1.703923351E0
1.244906950E1,-2.285369635E-1,-1.424902916E0,7.195460796E-2,1.444906547E0
1.245706782E1,-3.073877692E-1,-1.173395157E0,7.335472107E-2,1.215205476E0
1.246506539E1,-3.910731971E-1,-9.459028244E-1,4.689431190E-2,1.024631385E0
1.247306485E1,-3.821653724E-1,-7.902612686E-1,-9.858727455E-3,8.778726781E-1
1.248106371E1,-3.578481078E-1,-7.110862732E-1,-5.466794968E-2,7.979270273E-1
1.248906516E1,-2.872734964E-1,-7.130508423E-1,-3.070223331E-2,7.693569994E-1
1.249706434E1,-2.206532061E-1,-7.769393921E-1,1.725673676E-3,8.076667842E-1
1.250506200E1,-1.775237024E-1,-8.667640686E-1,4.220724106E-2,8.857629856E-1
1.251306274E1,-1.285141706E-1,-1.004186630E0,-2.165436745E-3,1.012379064E0
1.252106176E1,-1.148754954E-1,-1.100517273E0,-1.223577261E-1,1.113241241E0
1.252905954E1,-1.240106821E-1,-1.172410011E0,-1.565346718E-1,1.189296846E0
1.253705805E1,-1.383832395E-1,-1.231842995E0,-1.600531340E-1,1.249881630E0
1.254505684E1,-1.722971797E-1,-1.209342003E0,-2.650101185E-1,1.249969904E0
1.255305559E1,-2.128390074E-1,-1.093078613E0,-3.535263538E-1,1.168375873E0
1.256105536E1,-2.355155647E-1,-9.574527740E-1,-2.091435194E-1,1.007930755E0
1.256905590E1,-2.206718922E-1,-7.859191895E-1,-1.017665863E-2,8.163752940E-1
1.257705571E1,-2.535071075E-1,-4.444284439E-1,1.114729643E-1,5.236494219E-1
1.258505664E1,-3.305880427E-1,2.169704437E-2,-3.760695457E-3,3.313206280E-1
1.259305520E1,-3.683686256E-1,4.307470322E-1,-8.002758026E-3,5.668355090E-1
1.260105301E1,-4.064966738E-1,8.379497528E-1,1.133644581E-1,9.382168376E-1
1.260904942E1,-3.542740345E-1,1.171401978E0,2.572101355E-1,1.250539779E0
1.261704602E1,-2.970908582E-1,1.364222527E0,3.911390305E-1,1.449950282E0
1.262504379E1,-1.592296362E-1,1.416213036E0,3.493751287E-1,1.467336505E0
1.263304266E1,2.577829361E-2,1.317563057E0,1.025236845E-1,1.321797275E0
1.264103809E1,2.214765251E-1,1.128170967E0,-2.144598961E-2,1.149905002E0
1.264903899E1,3.893426955E-1,8.265314102E-1,-4.658210278E-2,9.148288358E-1
1.265703731E1,4.571340978E-1,4.605207443E-1,-1.857198477E-1,6.749391092E-1
1.266503414E1,5.611474514E-1,1.137590408E-1,-3.250739574E-1,6.584076696E-1
1.267303121E1,6.023495197E-1,-2.091474533E-1,-3.890411854E-1,7.469408578E-1
1.268102832E1,6.029755473E-1,-4.179525375E-1,-4.410353899E-1,8.560233930E-1
1.268902715E1,5.481038094E-1,-3.663082123E-1,-7.954393029E-1,1.033113342E0
1.269702399E1,4.181678593E-1,1.876010895E-1,-1.117677569E0,1.207999038E0
1.270502024E1,3.234063089E-1,1.087096214E0,1.301013231E-1,1.141619978E0
1.271301903E1,1.945990324E-1,1.759736061E0,1.603306890E0,2.388541976E0
1.272101426E1,-1.582657397E-1,2.471470833E0,1.085942268E0,2.704161003E0
1.272901149E1,-6.679027677E-1,3.330125809E0,-1.125133634E0,3.577954402E0
1.273701075E1,-9.779571295E-1,4.275876999E0,-2.003223419E0,4.822077179E0
1.274500954E1,-1.079935789E0,5.342982292E0,-1.066401720E0,5.554361684E0
1.275300625E1,-1.049421668E0,6.025830269E0,2.011417150E-1,6.119834496E0
1.276100282E1,-1.165064096E0,6.157202721E0,1.974469423E-1,6.269569761E0
1.276900055E1,-1.550265551E0,5.473003387E0,-1.003995180E0,5.776252737E0
1.277699754E1,-1.955367088E0,4.072816849E0,-2.039266109E0,4.956803789E0
1.278499536E1,-2.237277031E0,2.736721039E0,-2.574496269E0,4.372994580E0
1.279299547E1,-2.378083944E0,1.232708931E0,-2.814167976E0,3.885150699E0
1.280099618E1,-2.282152891E0,-2.854623795E-1,-2.545135260E0,3.430367922E0
1.280899711E1,-2.191942215E0,-1.655925751E0,-2.154293060E0,3.491085699E0
1.281699762E1,-2.231522322E0,-3.081076622E0,-1.924221277E0,4.263256097E0
1.282499782E1,-2.321817636E0,-4.187007427E0,-1.909790516E0,5.154528897E0
1.283299715E1,-2.448461533E0,-4.905406952E0,-1.699045539E0,5.739750603E0
1.284099575E1,-2.587292671E0,-5.383920193E0,-1.089969039E0,6.071961175E0
1.284899618E1,-2.517824650E0,-5.223162174E0,-3.441272974E-1,5.808552975E0
1.285699578E1,-2.237005949E0,-4.424555302E0,-2.808235884E-1,4.965858146E0
1.286499637E1,-1.805565953E0,-3.067093849E0,-8.041917086E-1,3.648815889E0
1.287299598E1,-1.390238523E0,-1.664010048E0,-1.195735216E0,2.476181597E0
1.288099907E1,-9.807848334E-1,3.067588806E-2,-1.425685644E0,1.730739569E0
1.288900282E1,-5.854361057E-1,1.673108101E0,-1.510701418E0,2.329000843E0
1.289700422E1,-3.181204796E-1,2.913823128E0,-1.506793141E0,3.295753545E0
1.290500086E1,-6.820259988E-2,3.943988800E0,-1.383731961E0,4.180240829E0
1.291299680E1,1.310427934E-1,4.410846710E0,-1.211784005E0,4.576151373E0
1.292099301E1,1.917804778E-1,4.223676682E0,-1.179387212E0,4.389439447E0
1.292899282E1,2.050161064E-1,3.376618385E0,-1.065407157E0,3.546642882E0
1.293699008E1,8.507728577E-3,2.243099213E0,-9.581997395E-1,2.439203395E0
1.294498676E1,-2.708586752E-1,1.261014938E0,-8.396081328E-1,1.538981778E0
1.295298407E1,-5.556786656E-1,1.978206635E-1,-8.061232567E-1,9.988726142E-1
1.296098114E1,-7.896472812E-1,-7.194175720E-1,-8.126298189E-1,1.342189142E0
1.296897672E1,-9.094324708E-1,-1.376132965E0,-7.303820252E-1,1.803958774E0
